Folder: python_code_MXene_VRFB/XPS (part 2)

File: MX-HT-0.5-Ti2p_lg4x.csv
#No of rows lightened (2D detector)1(if not using 2D detector, value is 1 and can be ignored!)
raw_x,raw_y,corrected x,data-bg,sum_components,bg,sum_fit,bg_shirley_,C_1,C_2,C_3,C_4,C_5,C_6,C_7,C_8
467.3,63.83,467.99,-81.3419,2.13689,145.172,147.309,145.172,1.08253e-36,0.0,5.20339e-139,7.71343e-30,6.7448e-16,1.39157e-06,2.11921,0.0176767
467.0,104.399,467.69,-40.7725,6.7204,145.172,151.892,145.172,5.33112e-34,0.0,3.69248e-132,4.18476e-28,2.9583e-14,1.19862e-05,6.65432,0.0660665
466.7,125.756,467.39,-19.4159,18.6782,145.172,163.85,145.172,2.11055e-31,0.0,1.77496e-125,2.03806e-26,1.09062e-12,9.18396e-05,18.451,0.227155
466.4,250.21,467.09,105.038,45.8965,145.172,191.068,145.172,6.7169e-29,0.0,5.77961e-119,8.91022e-25,3.37962e-11,0.000625972,45.1774,0.718497
466.1,271.986,466.79,126.814,99.7752,145.172,244.947,145.172,1.71847e-26,0.0,1.27481e-112,3.4969e-23,8.80282e-10,0.00379538,97.6807,2.09068
465.8,275.147,466.49,129.975,192.118,145.172,337.29,145.172,3.53436e-24,0.0,1.90473e-106,1.23197e-21,1.92724e-08,0.0204706,186.502,5.59643
465.5,484.191,466.19,339.019,328.323,145.172,473.494,145.172,5.84358e-22,0.0,1.92779e-100,3.89622e-20,3.54658e-07,0.0982157,314.443,13.7815
465.2,708.405,465.89,563.233,499.792,145.172,644.964,145.172,7.76685e-20,1.6938e-316,1.32167e-94,1.10614e-18,5.48585e-06,0.419186,468.152,31.2205
464.9,821.361,465.59,676.189,682.142,145.172,827.314,145.172,8.29867e-18,3.90294e-299,6.13799e-89,2.81902e-17,7.13244e-05,1.59151,615.486,65.0648
464.6,940.204,465.29,795.033,844.672,145.172,989.844,145.172,7.12804e-16,2.9438e-282,1.93094e-83,6.44927e-16,0.000779458,5.37508,714.554,124.742
464.3,1169.69,464.99,1024.52,968.715,145.172,1113.89,145.172,4.92187e-14,7.26837e-266,4.1148e-78,1.32449e-14,0.00715991,16.1487,732.551,220.008
464.0,1146.36,464.69,1001.19,1063.35,145.172,1208.52,145.172,2.73204e-12,5.87462e-250,5.93974e-73,2.44179e-13,0.0552818,43.1583,663.173,356.966
463.7,1267.13,464.39,1121.96,1165.93,145.172,1311.1,145.172,1.21911e-10,1.55431e-234,5.80798e-68,4.04102e-12,0.358771,102.605,530.153,532.814
463.4,1563.99,464.09,1418.82,1324.82,145.172,1469.99,145.172,4.37318e-09,1.3462e-219,3.847e-63,6.00342e-11,1.9571,216.993,374.25,731.619
463.1,1742.71,463.79,1597.54,1574.67,145.172,1719.84,145.172,1.2611e-07,3.81675e-205,1.72606e-58,8.00627e-10,8.97364,408.224,233.296,924.176
462.8,2012.52,463.49,1867.34,1920.13,145.172,2065.3,145.172,2.92347e-06,3.54236e-191,5.24603e-54,9.58485e-09,34.5847,683.167,128.422,1073.95
462.5,2542.39,463.19,2397.22,2339.58,145.172,2484.75,145.172,5.44811e-05,1.07623e-177,1.08005e-49,1.03006e-07,112.037,1017.02,62.4249,1148.09
462.2,2960.26,462.89,2815.09,2807.78,145.172,2952.95,145.172,0.000816189,1.07036e-164,1.50624e-45,9.93726e-07,305.068,1346.82,26.7955,1129.09
461.9,3516.65,462.59,3371.47,3316.49,145.172,3461.66,145.172,0.00982956,3.48476e-152,1.42294e-41,8.60583e-06,698.221,1586.59,10.1567,1021.51
461.6,3899.24,462.29,3754.06,3859.54,145.172,4004.71,145.172,0.0951646,3.71387e-140,9.10571e-38,6.69025e-05,1343.23,1662.63,3.39959,850.189
461.3,4347.5,461.99,4202.33,4374.62,145.172,4519.79,145.172,0.740653,1.29567e-128,3.94713e-34,0.000466892,2172.03,1549.89,1.00482,650.953
461.0,4964.33,461.69,4819.16,4700.82,145.172,4845.99,145.172,4.63396,1.47971e-117,1.15901e-30,0.00292492,2952.18,1285.23,0.262262,458.506
460.7,4657.44,461.39,4512.27,4641.26,145.172,4786.44,145.172,23.307,5.5319e-107,2.30533e-27,0.0164488,3372.72,948.061,0.0604462,297.099
460.4,4360.87,461.09,4215.7,4132.29,145.172,4277.47,145.172,94.2367,6.76994e-97,3.10611e-24,0.0830384,3238.75,622.11,0.0123024,177.099
460.1,3452.05,460.79,3306.88,3381.12,145.172,3526.29,145.172,306.303,2.71212e-87,2.83491e-21,0.376311,2614.18,363.14,0.00221102,97.1168
459.8,2863.09,460.49,2717.92,2813.03,145.172,2958.2,145.172,800.351,3.5567e-78,1.75267e-18,1.53087,1773.59,188.563,0.0003509,48.9928
459.5,3015.08,460.19,2869.91,2808,145.172,2953.17,145.172,1681.15,1.52686e-69,7.34007e-16,5.59055,1011.42,87.0989,4.91768e-05,22.7369
459.2,3617.92,459.89,3472.75,3387.41,145.172,3532.59,145.172,2838.78,2.14568e-61,2.08228e-13,18.3271,484.807,35.7886,6.08587e-06,9.70712
458.9,4435.13,459.59,4289.96,4119.65,145.172,4264.83,145.172,3853.5,9.87064e-54,4.00144e-11,53.9333,195.329,13.0814,6.65076e-07,3.8125
458.6,4712.62,459.29,4567.45,4419.35,145.172,4564.53,145.172,4205.1,1.48641e-46,5.20873e-09,142.477,66.1495,4.2534,6.41808e-08,1.3775
458.3,3862.49,458.99,3717.31,4047.27,145.172,4192.44,145.172,3688.88,7.32735e-40,4.5929e-07,337.874,18.8298,1.23025,5.46922e-09,0.45786
458.0,3227.83,458.69,3082.66,3325.65,145.172,3470.82,145.172,2601.43,1.18241e-33,2.74334e-05,719.264,4.5053,0.316539,4.11558e-10,0.140002
457.7,2972.91,458.39,2827.74,2850.3,145.172,2995.47,145.172,1474.78,6.24603e-28,0.00110997,1374.51,0.906073,0.0724497,2.73479e-11,0.039382
457.4,3364.53,458.09,3219.36,3030.23,145.172,3175.4,145.172,672.107,1.08007e-22,0.0304217,2357.91,0.153166,0.014751,1.60473e-12,0.0101911
457.1,4050.78,457.79,3905.6,3877.88,145.172,4023.06,145.172,246.235,6.11389e-18,0.564797,3631.06,0.0217632,0.00267166,8.31504e-14,0.00242609
456.8,5051.59,457.49,4906.42,5099.15,145.172,5244.32,145.172,72.52,1.13291e-13,7.10299,5019.52,0.00259921,0.000430443,3.80464e-15,0.000531314
456.5,6313.62,457.19,6168.44,6306.63,145.172,6451.8,145.172,17.1698,6.87205e-10,60.5101,6228.95,0.000260929,6.16916e-05,1.53727e-16,0.000107043
456.2,7514.6,456.89,7369.43,7291.36,145.172,7436.53,145.172,3.2679,1.36456e-06,349.184,6938.91,2.20172e-05,7.86523e-06,5.48492e-18,1.98392e-05
455.9,8768.07,456.59,8622.9,8304.36,145.172,8449.53,145.172,0.500001,0.000886974,1364.96,6938.91,1.56157e-06,8.92015e-07,1.72813e-19,3.3826e-06
455.6,9985.8,456.29,9840.63,9843.48,145.172,9988.65,145.172,0.0614995,0.188731,3614.28,6228.95,9.30943e-08,8.9993e-08,4.80806e-21,5.30566e-07
455.3,11192.4,455.99,11047.2,11515.5,145.172,11660.7,145.172,0.00608093,13.1459,6482.81,5019.52,4.66492e-09,8.07644e-09,1.18127e-22,7.65576e-08
455.0,11942.8,455.69,11797.6,11807.5,145.172,11952.7,145.172,0.000483355,299.745,7876.7,3631.06,1.96483e-10,6.44773e-10,2.56279e-24,1.01624e-08
454.7,11808,455.39,11662.8,11078,145.172,11223.2,145.172,3.08859e-05,2237.31,6482.81,2357.91,6.95611e-12,4.57898e-11,4.9098e-26,1.24099e-09
454.4,10723.1,455.09,10577.9,10455.4,145.172,10600.5,145.172,1.58654e-06,5466.58,3614.28,1374.51,2.06999e-13,2.89272e-12,8.30615e-28,1.39412e-10
454.1,6096.11,454.79,5950.94,6456.61,145.172,6601.78,145.172,6.55153e-08,4372.39,1364.96,719.264,5.17761e-15,1.62562e-13,1.24086e-29,1.44076e-11
453.8,1747.52,454.49,1602.35,1831.87,145.172,1977.04,145.172,2.17486e-09,1144.81,349.184,337.874,1.08856e-16,8.12657e-15,1.63693e-31,1.36975e-12
453.5,664.496,454.19,519.324,301.109,145.172,446.281,145.172,5.80385e-11,98.1219,60.5101,142.477,1.92368e-18,3.61386e-16,1.90688e-33,1.198e-13
453.2,485.638,453.89,340.466,63.7893,145.172,208.961,145.172,1.24509e-12,2.75303,7.10299,53.9333,2.85743e-20,1.42958e-17,1.96157e-35,9.63895e-15
452.9,332.893,453.59,187.722,18.9172,145.172,164.089,145.172,2.14725e-14,0.0252853,0.564797,18.3271,3.56761e-22,5.03064e-19,1.78184e-37,7.13451e-16
452.6,279.801,453.29,134.629,5.62105,145.172,150.793,145.172,2.97689e-16,7.60224e-05,0.0304217,5.59055,3.74404e-24,1.57475e-20,1.42929e-39,4.85802e-17
452.3,206.596,452.99,61.424,1.53198,145.172,146.704,145.172,3.31772e-18,7.48217e-08,0.00110997,1.53087,3.30265e-26,4.38508e-22,1.01241e-41,3.0431e-18
452.0,131.695,452.69,-13.4767,0.376339,145.172,145.548,145.172,2.97246e-20,2.41062e-11,2.74334e-05,0.376311,2.44876e-28,1.08622e-23,6.33258e-44,1.75361e-19
451.7,112.364,452.39,-32.8083,0.0830388,145.172,145.255,145.172,2.14087e-22,2.54239e-15,4.5929e-07,0.0830384,1.52612e-30,2.3935e-25,3.49776e-46,9.2963e-21
451.4,48.738,452.09,-96.4338,0.0164488,145.172,145.188,145.172,1.23954e-24,8.77749e-20,5.20873e-09,0.0164488,7.99453e-33,4.69163e-27,1.70602e-48,4.53365e-22
451.1,52.0656,451.79,-93.1062,0.00292492,145.172,145.175,145.172,5.7694e-27,9.92002e-25,4.00144e-11,0.00292492,3.52011e-35,8.18068e-29,7.34794e-51,2.03398e-23
450.8,90.4152,451.49,-54.7566,0.000466892,145.172,145.172,145.172,2.15873e-29,3.67002e-30,2.08228e-13,0.000466892,1.30281e-37,1.26891e-30,2.79468e-53,8.39473e-25
450.5,25.0,451.19,-120.172,6.69025e-05,145.172,145.172,145.172,6.49327e-32,4.44466e-36,7.34007e-16,6.69025e-05,4.05288e-40,1.75084e-32,9.38609e-56,3.18733e-26
450.2,99.0,450.89,-46.1718,8.60583e-06,145.172,145.172,145.172,1.5701e-34,1.76207e-42,1.75267e-18,8.60583e-06,1.05976e-42,2.14901e-34,2.7837e-58,1.11329e-27
450.0,80.0,450.69,-65.1718,2.0653e-06,145.172,145.172,145.172,2.50554e-36,5.11338e-47,2.52186e-20,2.0653e-06,1.82639e-44,1.07151e-35,5.36258e-60,1.1357e-28

File: UT-C1s.csv
#No of rows lightened (2D detector)1(if not using 2D detector, value is 1 and can be ignored!)
x,raw_y,data-bg,sum_components,bg,sum_fit,bg_shirley_,v1,v2,v3
304.5,23638.0,1280.59,525.268,22357.4,22882.7,22357.4,2.92792,612.36,-90.0197
303.5,22311.0,464.882,595.145,21846.1,22441.3,21846.1,3.32855,705.636,-113.82
302.5,21807.0,443.127,691.866,21363.9,22055.7,21363.9,3.81779,821.816,-133.768
301.5,21291.0,398.34,868.597,20892.7,21761.3,20892.7,4.42399,968.994,-104.821
300.5,21432.0,999.258,1271.47,20432.7,21704.2,20432.7,5.1879,1159.15,107.136
299.5,22300.0,2330.26,2198.68,19969.7,22168.4,19969.7,6.16982,1410.58,781.933
298.5,24141.0,4653.27,4068.96,19487.7,23556.7,19487.7,7.46219,1752.3,2309.2
297.5,26182.0,7216.57,7179.47,18965.4,26144.9,18965.4,9.21288,2232.38,4937.88
296.5,29197.0,10798.6,11309.2,18398.4,29707.7,18398.4,11.6711,2934.7,8362.85
295.5,33285.0,15519.5,15557.9,17765.5,33323.4,17765.5,15.286,4014.93,11527.7
294.5,36240.0,19197,18867.6,17043,35910.6,17043,20.9435,5783.21,13063.4
293.5,37439.0,21183.2,21143.9,16255.8,37399.7,16255.8,30.6409,8906.19,12207.1
292.5,39855.0,24412.6,24330.7,15442.4,39773.1,15442.4,52.462,14887.1,9391.07
291.5,46998.0,32421.9,32872,14576.1,47448.1,14576.1,362.33,26605.6,5904.09
290.5,66969.0,53415.5,53628,13553.5,67181.5,13553.5,8144.33,42510.7,2973.01
289.5,123889.0,111795,110818,12093.6,122912,12093.6,69664.4,40025.2,1128.38
288.5,210034.0,200646,200866,9387.8,210254,9387.8,176796,23827.5,242.243
287.5,148955.0,144159,144397,4796.19,149193,4796.19,131040,13427.2,-70.5825
286.5,37925.0,36383.4,36489.2,1541.64,38030.8,1541.64,28460.4,8162.82,-134.027
285.5,7673.0,6955.4,7170.22,717.599,7887.82,717.599,1916.75,5374.58,-121.119
284.5,4633.0,4077.21,3776.02,555.787,4331.8,555.787,101.012,3771.61,-96.6074
283.5,3373.0,2912.48,2742.13,460.522,3202.65,460.522,38.8356,2779.79,-76.4972
282.5,2407.0,2014.16,2091.59,392.839,2484.43,392.839,25.2068,2128.28,-61.8923
281.5,1873.0,1526.7,1645.83,346.302,1992.13,346.302,17.8507,1679.23,-51.2497
280.5,1667.0,1355.54,1327.53,311.455,1638.98,311.455,13.3421,1357.44,-43.2523