Folder: python_code_MXene_VRFB/XPS

Note: XPS/HT-C1s.txt
LG4X: LMFit GUI for XPS curve fitting v2.0.4

[[Data file]]

/home/kevin/Desktop/KTH/master_thesis/XPS/Casa format/HT CP 19 Ap location C1 in image_HTCP19ApC1s_C1s.txt

[[Fit results]]

bg_shirley_k	0.0020293873687666775
bg_shirley_const	3.6524105961888154e-09

	a1	v2	v3
amplitude	22419.045	2482.223	2849.1711	
center	288.33783	290.16043	294.819	
sigma	0.123958215	0.0	0.0	
gamma	0.19109486	1.3393267	2.051788	
fwhm	nan	2.6786618	4.1035886	
height	nan	1045.633	783.4497	
fraction	nan	nan	nan	
skew	0.1458639	nan	nan	
q	nan	nan	nan	

[[LG4X parameters]]

[[[100], 299.5, 281.5, 1486.6, 4.0], [['', 1e-06, '', 10.0, 0, 0.0020293873687666775, 0, 3.6524105961888154e-09, '', 1486.69], [2, 2866.0, '', 1643.0, '', 1.0, '', 1.0, '', 50.0], [2, 0.0, 2, 0.0, 2, 0.0, 2, 0.0, 2, 0.0], [2, 0.0, 0, '', 0, '', 0, '', 0, ''], [0, '', 0, '', 0, '', 0, '', 0, ''], [0, '', 0, '', 0, '', 0, '', 0, ''], [0, '', 0, '', 0, '', 0, '', 0, '']], [['', 6, '', 2, '', 2], [0, 288.3378, 0, 290.1604, 0, 294.819], [0, 22419.044, 0, 2482.223, 0, 2849.1712], [0, 0.1911, 0, 1.3393, 0, 2.0518], [0, 0.124, 0, 0.0, 0, 0.0], [2, 0.02, 2, 0.02, 2, 0.02], [2, 0.0, 2, 0.0, 2, 0.0], [0, 0.1459, 0, 0.022, 0, 0.022], [2, 0.0, 2, 0.0, 2, 0.0], [2, 0.026, 2, 0.026, 2, 0.026], [2, 1.0, 2, 1.0, 2, 1.0], [2, 0.7, 2, 0.7, 2, 0.7], [2, 1.0, 2, 1.0, 2, 1.0], ['', 0, '', 0, '', 0], [2, 0.1, 2, 0.1, 2, 0.1], ['', 0, '', 0, '', 0], [2, 0.5, 2, 0.5, 2, 0.5], ['', 0, '', 0, '', 0], [2, 1.0, 2, 1.0, 2, 1.0], ['', 0, '', 0, '', 0], [2, 1.0, 2, 1.0, 2, 1.0], ['', 0, '', 0, '', 0], [2, 1.0, 2, 1.0, 2, 1.0], ['', 0, '', 0, '', 0], [2, 1.0, 2, 1.0, 2, 1.0], ['', 0, '', 0, '', 0], [2, 1.0, 2, 1.0, 2, 1.0]], [[0, '', '', 2, 289.5, 290.5, 0, '', ''], [0, '', '', 0, '', '', 0, '', ''], [0, '', '', 0, '', '', 0, '', ''], [0, '', '', 0, '', '', 0, '', ''], [0, '', '', 0, '', '', 0, '', ''], [0, '', '', 0, '', '', 0, '', ''], [0, '', '', 0, '', '', 0, '', ''], [0, '', '', 0, '', '', 0, '', ''], [0, '', '', 0, '', '', 0, '', ''], [0, '', '', 0, '', '', 0, '', ''], [0, '', '', 0, '', '', 0, '', ''], [0, '', '', 0, '', '', 0, '', ''], [0, '', '', 0, '', '', 0, '', ''], [0, '', '', 0, '', '', 0, '', ''], [0, '', '', 0, '', '', 0, '', ''], [0, '', '', 0, '', '', 0, '', ''], [0, '', '', 0, '', '', 0, '', ''], [0, '', '', 0, '', '', 0, '', ''], [0, '', '', 0, '', '', 0, '', '']]]

[[lmfit parameters]]

Parameters([('bg_shirley_k', <Parameter 'bg_shirley_k', value=0.0020293873661425543, bounds=[0:inf]>), ('bg_shirley_const', <Parameter 'bg_shirley_const', value=3.6524105961888154e-09, bounds=[0:inf]>), ('a1_amplitude', <Parameter 'a1_amplitude', value=22419.044, bounds=[-inf:inf]>), ('a1_center', <Parameter 'a1_center', value=288.3378, bounds=[-inf:inf]>), ('a1_sigma', <Parameter 'a1_sigma', value=0.124, bounds=[0:inf]>), ('a1_skew', <Parameter 'a1_skew', value=0.1459, bounds=[-inf:inf]>), ('a1_gamma', <Parameter 'a1_gamma', value=0.1911, bounds=[-inf:inf]>), ('a1_center_diff', <Parameter 'a1_center_diff', value=0.1 (fixed), bound

Note: XPS/HT-O1s.txt
LG4X: LMFit GUI for XPS curve fitting v2.0.4

[[Data file]]

/home/kevin/Desktop/KTH/master_thesis/XPS/Casa format/HT CP 19 Ap location C1 in image_HTCP19Apwide_wide.txt

[[Fit results]]

bg_poly_c0	-16528096.96900061
bg_poly_c1	129086.42310186726
bg_poly_c2	-376.21756385742594
bg_poly_c3	0.48606493322529937
bg_poly_c4	-0.00023490184038526637

	g1	g2
amplitude	44104.25	13582.962	
center	536.11847	539.7016	
sigma	1.5806525	2.7395885	
gamma	nan	nan	
fwhm	3.7221522	6.4512377	
height	11131.511	1977.9679	
fraction	nan	nan	
skew	nan	nan	
q	nan	nan	

[[LG4X parameters]]

[[[2], 580.0, 500.0, 1486.6, 4.0], [['', 1e-06, '', 10.0, 0, 0.07832682333493479, 0, 39361.828950469135, '', 1486.69], [2, 2866.0, '', 1643.0, '', 1.0, '', 1.0, '', 50.0], [0, -16528096.96900061, 0, 129086.42310186726, 0, -376.21756385742594, 0, 0.48606493322529937, 0, -0.00023490184038526637], [2, 0.0, 0, '', 0, '', 0, '', 0, ''], [0, '', 0, '', 0, '', 0, '', 0, ''], [0, '', 0, '', 0, '', 0, '', 0, ''], [0, 537.5000125907201, 0, -1870.3021232459507, 0, 139.46190479010323, 0, -4.141331488016588, 0, 0.04733037642574885]], [['', 0, '', 0], [0, 536.1185, 0, 539.7016], [0, 44104.2503, 0, 13582.9618], [2, 0.2, 2, 0.2], [0, 1.5807, 0, 2.7396], [2, 0.02, 2, 0.02], [2, 0.0, 2, 0.0], [2, 0.0, 2, 0.0], [2, 0.0, 2, 0.0], [2, 0.026, 2, 0.026], [2, 1.0, 2, 1.0], [2, 0.7, 2, 0.7], [2, 1.0, 2, 1.0], ['', 0, '', 0], [2, 0.1, 2, 0.1], ['', 0, '', 0], [2, 0.5, 2, 0.5], ['', 0, '', 0], [2, 1.0, 2, 1.0], ['', 0, '', 0], [2, 1.0, 2, 1.0], ['', 0, '', 0], [2, 1.0, 2, 1.0], ['', 0, '', 0], [2, 1.0, 2, 1.0], ['', 0, '', 0], [2, 1.0, 2, 1.0]], [[0, '', '', 0, '', ''], [0, '', '', 0, '', ''], [0, '', '', 0, '', ''], [0, '', '', 0, '', ''], [0, '', '', 0, '', ''], [0, '', '', 0, '', ''], [0, '', '', 0, '', ''], [0, '', '', 0, '', ''], [0, '', '', 0, '', ''], [0, '', '', 0, '', ''], [0, '', '', 0, '', ''], [0, '', '', 0, '', ''], [0, '', '', 0, '', ''], [0, '', '', 0, '', ''], [0, '', '', 0, '', ''], [0, '', '', 0, '', ''], [0, '', '', 0, '', ''], [0, '', '', 0, '', ''], [0, '', '', 0, '', '']]]

[[lmfit parameters]]

Parameters([('bg_poly_c0', <Parameter 'bg_poly_c0', value=23073074.478057534, bounds=[-inf:inf]>), ('bg_poly_c1', <Parameter 'bg_poly_c1', value=-164802.69895205327, bounds=[-inf:inf]>), ('bg_poly_c2', <Parameter 'bg_poly_c2', value=440.8229290871612, bounds=[-inf:inf]>), ('bg_poly_c3', <Parameter 'bg_poly_c3', value=-0.5224316827091242, bounds=[-inf:inf]>), ('bg_poly_c4', <Parameter 'bg_poly_c4', value=0.0002314263882216013, bounds=[-inf:inf]>), ('g1_amplitude', <Parameter 'g1_amplitude', value=50717.5808, bounds=[-inf:inf]>), ('g1_center', <Parameter 'g1_center', value=536.3592, bounds=[-inf:inf]>), ('g1_sigma', <Parameter 'g1_sigma', value=1.773, bounds=[0:inf]>), ('g1_fwhm', <Parameter 'g1_fwhm', value=4.17509586, bounds=[-inf:inf], expr='2.3548200*g1_sigma'>), ('g1_height', <Parameter 'g1_height', value=11411.950555435897, bounds=[-inf:inf], expr='0.3989423*g1_amplitude/max(1e-15, g1_sigma)'>), 

File: HT-C1s.csv
#No of rows lightened (2D detector)1(if not using 2D detector, value is 1 and can be ignored!)
x,raw_y,data-bg,sum_components,bg,sum_fit,bg_shirley_,a1,v2,v3
299.5,852.0,96.8913,169.224,755.109,924.333,755.109,21.8918,21.0697,126.263
299.3,922.0,170.457,180.468,751.543,932.011,751.543,22.698,21.9823,135.788
299.1,925.0,177.118,192.851,747.882,940.733,747.882,23.5495,22.9551,146.347
298.9,950.0,205.96,206.52,744.04,950.561,744.04,24.4499,23.9934,158.077
298.7,951.0,210.817,221.644,740.183,961.827,740.183,25.4029,25.1031,171.139
298.5,986.0,249.767,238.416,736.233,974.65,736.233,26.4127,26.2909,185.713
298.3,1008.0,275.797,257.054,732.203,989.257,732.203,27.484,27.5643,202.005
298.1,1047.0,318.927,277.802,728.073,1005.88,728.073,28.6217,28.9316,220.249
297.9,999.0,275.13,300.935,723.87,1024.81,723.87,29.8317,30.4022,240.701
297.7,1084.0,364.282,326.75,719.718,1046.47,719.718,31.12,31.9865,263.644
297.5,1048.0,332.548,355.565,715.452,1071.02,715.452,32.4936,33.6965,289.375
297.3,1067.0,355.872,387.703,711.128,1098.83,711.128,33.9602,35.5458,318.197
297.1,1120.0,413.221,423.471,706.779,1130.25,706.779,35.5284,37.5495,350.393
296.9,1123.0,420.793,463.119,702.207,1165.33,702.207,37.2078,39.7253,386.186
296.7,1151.0,453.38,506.784,697.62,1204.4,697.62,39.0092,42.093,425.682
296.5,1256.0,563.157,554.405,692.843,1247.25,692.843,40.9446,44.6755,468.785
296.3,1262.0,574.281,605.61,687.719,1293.33,687.719,43.0277,47.4992,515.083
296.1,1384.0,701.426,659.583,682.574,1342.16,682.574,45.2739,50.5945,563.715
295.9,1443.0,766.035,714.925,676.965,1391.89,676.965,47.7007,53.9967,613.228
295.7,1474.0,802.859,769.564,671.141,1440.7,671.141,50.328,57.7468,661.489
295.5,1565.0,899.996,820.778,665.004,1485.78,665.004,53.1786,61.893,705.706
295.3,1607.0,948.36,865.405,658.64,1524.04,658.64,56.2783,66.4914,742.635
295.1,1561.0,908.779,900.291,652.221,1552.51,652.221,59.6573,71.6086,769.025
294.9,1634.0,988.141,922.903,645.859,1568.76,645.859,63.3499,77.3232,782.23
294.7,1566.0,926.52,931.949,639.48,1571.43,639.48,67.3964,83.729,780.824
294.5,1468.0,834.774,927.741,633.226,1560.97,633.226,71.8434,90.9379,764.96
294.3,1481.0,853.818,912.168,627.182,1539.35,627.182,76.7455,99.0845,736.338
294.1,1493.0,871.825,888.266,621.175,1509.44,621.175,82.167,108.332,697.767
293.9,1449.0,833.931,859.602,615.069,1474.67,615.069,88.1841,118.876,652.542
293.7,1374.0,764.711,829.693,609.289,1438.98,609.289,94.8872,130.96,603.846
293.5,1392.0,788.379,801.62,603.621,1405.24,603.621,102.385,144.877,554.358
293.3,1399.0,801.063,777.876,597.937,1375.81,597.937,110.808,160.991,506.078
293.1,1348.0,755.687,760.398,592.313,1352.71,592.313,120.314,179.749,460.335
292.9,1341.0,754.284,750.7,586.716,1337.42,586.716,131.099,201.704,417.897
292.7,1349.0,767.741,750.046,581.259,1331.31,581.259,143.402,227.539,379.105
292.5,1391.0,815.24,759.623,575.76,1335.38,575.76,157.523,258.092,344.008
292.3,1430.0,859.884,780.688,570.116,1350.8,570.116,173.836,294.379,312.472
292.1,1473.0,908.664,814.689,564.336,1379.03,564.336,192.822,337.607,284.26
291.9,1450.0,891.687,863.326,558.313,1421.64,558.313,215.097,389.148,259.081
291.7,1516.0,963.621,928.536,552.379,1480.92,552.379,241.464,450.438,236.634
291.5,1605.0,1058.84,1012.33,546.157,1558.49,546.157,272.987,522.722,216.622
291.3,1599.0,1059.38,1116.39,539.618,1656.01,539.618,311.09,606.534,198.769
291.1,1758.0,1225.1,1241.29,532.905,1774.2,532.905,357.71,700.763,182.819
290.9,1905.0,1379.38,1385.37,525.615,1910.99,525.615,415.522,801.302,168.548
290.7,1922.0,1404.23,1543.66,517.768,2061.43,517.768,488.282,899.624,155.752
290.5,2176.0,1666.33,1708.1,509.67,2217.77,509.67,581.369,982.479,144.256
290.3,2329.0,1828.29,1870.97,500.715,2371.69,500.715,702.671,1034.4,133.904
290.1,2527.0,2036.1,2032.22,490.901,2523.12,490.901,864.153,1043.51,124.56
289.9,2727.0,2246.59,2208.44,480.413,2688.85,480.413,1084.79,1007.54,116.108
289.7,2970.0,2501,2440.19,469.004,2909.2,469.004,1396.63,935.117,108.444
289.5,3313.0,2856.36,2801.01,456.641,3257.65,456.641,1858.42,841.113,101.478
289.3,3810.0,3367.35,3425.73,442.648,3868.38,442.648,2590.45,740.154,95.1335
289.1,5053.0,4626.77,4610.03,426.23,5036.26,426.23,3877.97,642.718,89.3415
288.9,7443.0,7039.02,7175.61,403.978,7579.58,403.978,6537.04,554.519,84.0426
288.7,14370.0,14002.1,13638.9,367.855,14006.8,367.855,13082.1,477.672,79.1847
288.5,25946.0,25647.6,26112.4,298.385,26410.8,298.385,25625.5,412.156,74.7221
288.3,28438.0,28252.8,28122.7,185.173,28307.9,185.173,27695.2,356.927,70.6144
288.1,13932.0,13849.2,13551,82.7726,13633.8,82.7726,13173.6,310.581,66.8264
287.9,4350.0,4311.32,4632.17,38.6781,4670.85,38.6781,4297.15,271.702,63.3266
287.7,1774.0,1749.47,1841.62,24.5312,1866.15,24.5312,1542.52,239.012,60.0875
287.5,1007.0,988.725,905.659,18.2746,923.934,18.2746,637.155,211.42,57.0844
287.3,627.0,612.352,525.68,14.6481,540.328,14.6481,283.365,188.019,54.2957
287.1,388.0,375.655,349.797,12.3448,362.141,12.3448,130.026,168.069,51.7018
286.9,299.0,288.1,260.324,10.8998,271.224,10.8998,60.0712,150.968,49.2854
286.7,220.0,210.204,210.781,9.79585,220.577,9.79585,27.5209,136.229,47.0312
286.5,184.0,175.056,180.761,8.94351,189.705,8.94351,12.3777,123.459,44.9251
286.3,161.0,152.767,160.718,8.23322,168.951,8.23322,5.42655,112.337,42.9547
286.1,144.0,136.439,146.018,7.5615,153.579,7.5615,2.30711,102.602,41.1089
285.9,140.0,132.999,134.366,7.00139,141.367,7.00139,0.947487,94.0409,39.3775
285.7,119.0,112.551,124.605,6.44939,131.054,6.44939,0.374731,86.4785,37.7515
285.5,108.0,101.997,116.134,6.00293,122.137,6.00293,0.142385,79.7695,36.2226
285.3,104.0,98.4212,108.629,5.57879,114.207,5.57879,0.0518751,73.7935,34.7834
285.1,90.0,84.8271,101.895,5.17291,107.068,5.17291,0.0180931,68.4501,33.427
284.9,85.0,80.164,95.8083,4.83603,100.644,4.83603,0.0060333,63.6549,32.1473
284.7,73.0,68.4927,90.2778,4.50727,94.7851,4.50727,0.00192131,59.3371,30.9388
284.5,79.0,74.8256,85.2333,4.17445,89.4078,4.17445,0.000583757,55.4365,29.7963
284.3,81.0,77.132,80.6172,3.86801,84.4852,3.86801,0.000169086,51.9018,28.7151
284.1,75.0,71.4547,76.3808,3.54534,79.9261,3.54534,4.66577e-05,48.6896,27.6911
283.9,74.0,70.7591,72.4826,3.24093,75.7236,3.24093,1.22579e-05,45.7624,26.7203
283.7,73.0,70.0432,68.8868,2.95682,71.8436,2.95682,3.06446e-06,43.0878,25.799
283.5,73.0,70.3435,65.5621,2.65647,68.2186,2.65647,7.28678e-07,40.638,24.9241
283.3,60.0,57.6175,62.4814,2.3825,64.8639,2.3825,1.64734e-07,38.3888,24.0925
283.1,56.0,53.8671,59.6207,2.13289,61.7536,2.13289,3.53948e-08,36.3192,23.3014
282.9,72.0,70.1188,56.9591,1.88124,58.8404,1.88124,7.22536e-09,34.4108,22.5483
282.7,62.0,60.3785,54.4782,1.62148,56.0997,1.62148,1.40094e-09,32.6474,21.8308
282.5,61.0,59.62,52.1615,1.37998,53.5415,1.37998,2.57931e-10,31.0148,21.1467
282.3,67.0,65.8493,49.9945,1.15066,51.1452,1.15066,4.50806e-11,29.5006,20.494
282.1,65.0,64.1253,47.9643,0.874666,48.839,0.874666,7.48033e-12,28.0936,19.8707
281.9,56.0,55.3851,46.0594,0.614904,46.6743,0.614904,1.17654e-12,26.7841,19.2753
281.7,68.0,67.6327,44.2693,0.367319,44.6366,0.367319,1.75283e-13,25.5634,18.706
281.5,58.0,57.8823,42.5849,0.117704,42.7026,0.117704,2.59102e-14,24.4236,18.1613

File: HT-O1s.csv
#No of rows lightened (2D detector)1(if not using 2D detector, value is 1 and can be ignored!),,,,,,,
x,raw_y,data-bg,sum_components,bg,sum_fit,bg_poly_,g1,g2
579.5,37038,96.3655,0,36941.6,36941.6,36941.6,3.02987e-160,2.95024e-43
578.5,37241,190.464,0,37050.5,37050.5,37050.5,8.61566e-153,5.54433e-41
577.5,37345,194.221,0,37150.8,37150.8,37150.8,1.64183e-145,9.11959e-39
576.5,37595,352.292,0,37242.7,37242.7,37242.7,2.09674e-138,1.31292e-36
575.5,37164,-162.657,0,37326.7,37326.7,37326.7,1.79447e-131,1.65438e-34
574.5,37143,-259.959,0,37403,37403,37403,1.0292e-124,1.8246e-32
573.5,37448,-23.9374,0,37471.9,37471.9,37471.9,3.95588e-118,1.7613e-30
572.5,37285,-248.913,0,37533.9,37533.9,37533.9,1.01896e-111,1.48812e-28
571.5,37385,-204.2,0,37589.2,37589.2,37589.2,1.75894e-105,1.10046e-26
570.5,37531,-107.106,0,37638.1,37638.1,37638.1,2.03478e-99,7.12278e-25
569.5,37331,-349.933,0,37680.9,37680.9,37680.9,1.57747e-93,4.03514e-23
568.5,37574,-143.98,0,37718,37718,37718,8.19556e-88,2.0008e-21
567.5,37667,-82.5373,0,37749.5,37749.5,37749.5,2.85346e-82,8.68325e-20
566.5,37630,-145.891,0,37775.9,37775.9,37775.9,6.65795e-77,3.29835e-18
565.5,37715,-82.3206,0,37797.3,37797.3,37797.3,1.04108e-71,1.0966e-16
564.5,38019,204.899,0,37814.1,37814.1,37814.1,1.09095e-66,3.19104e-15
563.5,37947,120.498,0,37826.5,37826.5,37826.5,7.66121e-62,8.12744e-14
562.5,37826,-8.78533,0,37834.8,37834.8,37834.8,3.60551e-57,1.8118e-12
561.5,37925,85.7905,3.63798e-11,37839.2,37839.2,37839.2,1.13713e-52,3.5351e-11
560.5,37832,-8.02624,6.03904e-10,37840,37840,37840,2.40343e-48,6.03709e-10
559.5,37914,76.5181,9.02219e-09,37837.5,37837.5,37837.5,3.4043e-44,9.02381e-09
558.5,38148,316.183,1.18052e-07,37831.8,37831.8,37831.8,3.23146e-40,1.18056e-07
557.5,38334,510.733,1.35182e-06,37823.3,37823.3,37823.3,2.05563e-36,1.35182e-06
556.5,38109,296.939,1.35484e-05,37812.1,37812.1,37812.1,8.76326e-33,1.35484e-05
555.5,37597,-201.423,0.000118848,37798.4,37798.4,37798.4,2.50358e-29,0.000118848
554.5,37746,-36.571,0.000912493,37782.6,37782.6,37782.6,4.7933e-26,0.000912493
553.5,37654,-110.717,0.00613201,37764.7,37764.7,37764.7,6.15009e-23,0.00613201
552.5,37686,-59.0692,0.0360672,37745.1,37745.1,37745.1,5.28815e-20,0.0360672
551.5,37620,-103.828,0.185676,37723.8,37724,37723.8,3.04721e-17,0.185676
550.5,37710,8.81192,0.836636,37701.2,37702,37701.2,1.17672e-14,0.836636
549.5,37756,78.6592,3.29953,37677.3,37680.6,37677.3,3.04525e-12,3.29953
548.5,37810,157.53,11.3894,37652.5,37663.9,37652.5,5.28138e-10,11.3894
547.5,37715,88.2458,34.4102,37626.8,37661.2,37626.8,6.13827e-08,34.4102
546.5,37613,12.6333,90.9931,37600.4,37691.4,37600.4,4.78102e-06,90.9931
545.5,37938,364.525,210.603,37573.5,37784.1,37573.5,0.000249557,210.603
544.5,38035,488.76,426.643,37546.2,37972.9,37546.2,0.00872961,426.635
543.5,38159,640.181,756.66,37518.8,38275.5,37518.8,0.204642,756.455
542.5,38640,1148.64,1177.15,37491.4,38668.5,37491.4,3.21492,1173.94
541.5,39120,1655.99,1628.41,37464,39092.4,37464,33.8471,1594.57
540.5,39595,2158.09,2134.53,37436.9,39571.4,37436.9,238.807,1895.73
539.5,40479,3068.81,3101.76,37410.2,40512,37410.2,1129.14,1972.62
538.5,42819,5435.02,5374.46,37384,42758.4,37384,3577.88,1796.58
537.5,46315,8956.59,9029.75,37358.4,46388.2,37358.4,7597.61,1432.14
536.5,49197,11863.4,11811.2,37333.6,49144.8,37333.6,10812,999.217
535.5,48231,10921.4,10921.3,37309.6,48230.9,37309.6,10311.1,610.195
534.5,44142,6855.4,6916.14,37286.6,44202.7,37286.6,6589.99,326.147
533.5,40325,3060.34,2975.1,37264.7,40239.8,37264.7,2822.53,152.579
532.5,38122,878.117,872.627,37243.9,38116.5,37243.9,810.151,62.4753
531.5,37245,20.6505,178.227,37224.3,37402.6,37224.3,155.837,22.3903
530.5,36968,-238.146,27.1119,37206.1,37233.3,37206.1,20.0886,7.02336
529.5,37046,-143.349,3.66368,37189.3,37193,37189.3,1.73541,1.92826
528.5,37145,-29.0316,0.563833,37174,37174.6,37174,0.100469,0.463364
527.5,37046,-114.259,0.101355,37160.3,37160.4,37160.3,0.00389796,0.0974573
526.5,37076,-72.0909,0.0180421,37148.1,37148.1,37148.1,0.000101349,0.0179408
525.5,37160,22.4173,0.00289247,37137.6,37137.6,37137.6,1.76593e-06,0.0028907
524.5,37104,-24.7833,0.000407684,37128.8,37128.8,37128.8,2.06207e-08,0.000407663
523.5,37028,-93.736,5.03194e-05,37121.7,37121.7,37121.7,1.61365e-10,5.03193e-05
522.5,36947,-169.478,5.43629e-06,37116.5,37116.5,37116.5,8.46236e-13,5.43629e-06
521.5,37293,179.957,5.14054e-07,37113,37113,37113,2.97405e-15,5.14051e-07
520.5,37069,-42.4557,4.25425e-08,37111.5,37111.5,37111.5,7.00454e-18,4.25446e-08
519.5,37091,-20.7377,3.08501e-09,37111.7,37111.7,37111.7,1.10557e-20,3.0819e-09
518.5,37121,7.09591,1.96451e-10,37113.9,37113.9,37113.9,1.16942e-23,1.95402e-10
517.5,37218,100.036,7.27596e-12,37118,37118,37118,8.28948e-27,1.08436e-11
516.5,37144,20.0774,0,37123.9,37123.9,37123.9,3.93786e-30,5.26688e-13
515.5,37117,-14.7769,0,37131.8,37131.8,37131.8,1.25363e-33,2.23908e-14
514.5,37254,112.48,0,37141.5,37141.5,37141.5,2.67456e-37,8.33143e-16
513.5,37343,189.861,0,37153.1,37153.1,37153.1,3.82394e-41,2.71335e-17
512.5,37388,221.385,0,37166.6,37166.6,37166.6,3.66392e-45,7.7344e-19
511.5,36946,-235.923,0,37181.9,37181.9,37181.9,2.35264e-49,1.92967e-20
510.5,37090,-109.035,0,37199,37199,37199,1.01237e-53,4.21381e-22
509.5,37581,363.086,0,37217.9,37217.9,37217.9,2.91945e-58,8.05383e-24
508.5,37074,-164.519,0,37238.5,37238.5,37238.5,5.64204e-63,1.3473e-25
507.5,37242,-18.8039,0,37260.8,37260.8,37260.8,7.30713e-68,1.97271e-27
506.5,37724,439.285,0,37284.7,37284.7,37284.7,6.34209e-73,2.52811e-29
505.5,37334,23.8045,0,37310.2,37310.2,37310.2,3.68887e-78,2.83573e-31
504.5,37569,231.819,0,37337.2,37337.2,37337.2,1.43791e-83,2.78399e-33
503.5,37103,-262.602,0,37365.6,37365.6,37365.6,3.75615e-89,2.39225e-35
502.5,37215,-180.383,0,37395.4,37395.4,37395.4,6.57551e-95,1.79921e-37
501.5,37186,-240.445,0,37426.4,37426.4,37426.4,7.71422e-101,1.18438e-39
500.5,37502,43.3001,0,37458.7,37458.7,37458.7,6.06499e-107,6.82395e-42