Folder: python_code_MXene_VRFB/XPS/Casa format (part 2)

File: MX-HT 0p1 20Ap location X1 in image_MXHT0p120ApCl2p_Cl2p.txt
BE/eV	PE: 20.0 eV
208.0	952.0
207.9	1005.0
207.8	1037.0
207.7	1020.0
207.6	1051.0
207.5	1028.0
207.4	962.0
207.3	1000.0
207.2	1038.0
207.1	1026.0
207.0	1054.0
206.9	1036.0
206.8	1047.0
206.7	1027.0
206.6	1035.0
206.5	991.0
206.4	1040.0
206.3	974.0
206.2	1018.0
206.1	1033.0
206.0	1049.0
205.9	1035.0
205.8	1036.0
205.7	1036.0
205.6	1019.0
205.5	1041.0
205.4	1051.0
205.3	1000.0
205.2	1065.0
205.1	1075.0
205.0	1051.0
204.9	1054.0
204.8	1019.0
204.7	980.0
204.6	965.0
204.5	1000.0
204.4	1005.0
204.3	1039.0
204.2	1048.0
204.1	1042.0
204.0	997.0
203.9	1029.0
203.8	1045.0
203.7	992.0
203.6	988.0
203.5	1026.0
203.4	1029.0
203.3	1042.0
203.2	1086.0
203.1	1049.0
203.0	1019.0
202.9	1051.0
202.8	1066.0
202.7	1077.0
202.6	1075.0
202.5	1017.0
202.4	1017.0
202.3	1020.0
202.2	1085.0
202.1	1052.0
202.0	1016.0
201.9	1080.0
201.8	1054.0
201.7	1057.0
201.6	1052.0
201.5	1100.0
201.4	1117.0
201.3	1118.0
201.2	1165.0
201.1	1151.0
201.0	1239.0
200.9	1185.0
200.8	1213.0
200.7	1274.0
200.6	1320.0
200.5	1389.0
200.4	1473.0
200.3	1544.0
200.2	1500.0
200.1	1520.0
200.0	1502.0
199.9	1492.0
199.8	1385.0
199.7	1356.0
199.6	1326.0
199.5	1243.0
199.4	1211.0
199.3	1257.0
199.2	1363.0
199.1	1466.0
199.0	1522.0
198.9	1683.0
198.8	1766.0
198.7	1867.0
198.6	2031.0
198.5	1911.0
198.4	1872.0
198.3	1726.0
198.2	1534.0
198.1	1409.0
198.0	1235.0
197.9	1177.0
197.8	1125.0
197.7	1027.0
197.6	1017.0
197.5	1005.0
197.4	1068.0
197.3	1019.0
197.2	1013.0
197.1	996.0
197.0	1038.0
196.9	1001.0
196.8	1006.0
196.7	1001.0
196.6	986.0
196.5	981.0
196.4	1010.0
196.3	1022.0
196.2	1022.0
196.1	994.0
196.0	1026.0
195.9	1027.0
195.8	1032.0
195.7	996.0
195.6	989.0
195.5	961.0
195.4	1006.0
195.3	1040.0
195.2	975.0
195.1	947.0
195.0	960.0

File: MX-HT 0p1 20Ap location X1 in image_MXHT0p120ApCl2s_Cl2s.txt
BE/eV	PE: 20.0 eV
285.0	1754.0
284.8	2076.0
284.6	2762.0
284.4	4161.0
284.2	7707.0
284.0	12183.0
283.8	10728.0
283.6	4757.0
283.4	1629.0
283.2	870.0
283.0	544.0
282.8	374.0
282.6	300.0
282.4	275.0
282.2	256.0
282.0	258.0
281.8	339.0
281.6	497.0
281.4	713.0
281.2	579.0
281.0	247.0
280.8	152.0
280.6	119.0
280.4	104.0
280.2	94.0
280.0	95.0
279.8	92.0
279.6	100.0
279.4	111.0
279.2	95.0
279.0	90.0
278.8	93.0
278.6	105.0
278.4	102.0
278.2	96.0
278.0	96.0
277.8	91.0
277.6	76.0
277.4	78.0
277.2	83.0
277.0	102.0
276.8	89.0
276.6	89.0
276.4	97.0
276.2	92.0
276.0	85.0
275.8	76.0
275.6	102.0
275.4	93.0
275.2	81.0
275.0	83.0
274.8	108.0
274.6	90.0
274.4	82.0
274.2	85.0
274.0	79.0
273.8	74.0
273.6	94.0
273.4	77.0
273.2	88.0
273.0	101.0
272.8	94.0
272.6	93.0
272.4	77.0
272.2	83.0
272.0	90.0
271.8	99.0
271.6	109.0
271.4	88.0
271.2	91.0
271.0	110.0
270.8	123.0
270.6	109.0
270.4	102.0
270.2	102.0
270.0	114.0
269.8	94.0
269.6	121.0
269.4	119.0
269.2	107.0
269.0	100.0
268.8	104.0
268.6	104.0
268.4	99.0
268.2	86.0
268.0	91.0
267.8	90.0
267.6	76.0
267.4	91.0
267.2	95.0
267.0	75.0
266.8	84.0
266.6	93.0
266.4	85.0
266.2	85.0
266.0	70.0
265.8	96.0
265.6	75.0
265.4	85.0
265.2	70.0
265.0	91.0
264.8	88.0
264.6	79.0
264.4	87.0
264.2	85.0
264.0	85.0
263.8	84.0
263.6	88.0
263.4	80.0
263.2	81.0
263.0	85.0
262.8	94.0
262.6	78.0
262.4	96.0
262.2	83.0
262.0	92.0
261.8	84.0
261.6	75.0
261.4	84.0
261.2	92.0
261.0	76.0
260.8	94.0
260.6	87.0
260.4	90.0
260.2	85.0
260.0	85.0
259.8	77.0
259.6	89.0
259.4	83.0
259.2	75.0
259.0	86.0
258.8	85.0
258.6	86.0
258.4	82.0
258.2	86.0
258.0	79.0
257.8	84.0
257.6	91.0
257.4	93.0
257.2	95.0
257.0	74.0
256.8	90.0
256.6	84.0
256.4	78.0
256.2	87.0
256.0	89.0
255.8	90.0
255.6	88.0
255.4	85.0
255.2	80.0
255.0	81.0

File: MX-HT 0p1 20Ap location X1 in image_MXHT0p120ApF1s_F1s.txt
BE/eV	PE: 20.0 eV
695.0	9624.0
694.9	9714.0
694.8	9744.0
694.7	9714.0
694.6	9772.0
694.5	9824.0
694.4	9774.0
694.3	9802.0
694.2	9814.0
694.1	9720.0
694.0	9724.0
693.9	9859.0
693.8	9855.0
693.7	9636.0
693.6	9860.0
693.5	9707.0
693.4	9697.0
693.3	9738.0
693.2	9704.0
693.1	9762.0
693.0	9771.0
692.9	9635.0
692.8	9726.0
692.7	9885.0
692.6	9747.0
692.5	9728.0
692.4	9700.0
692.3	9628.0
692.2	9681.0
692.1	9950.0
692.0	9670.0
691.9	9916.0
691.8	9822.0
691.7	9686.0
691.6	9697.0
691.5	9811.0
691.4	9774.0
691.3	9820.0
691.2	9870.0
691.1	9684.0
691.0	9731.0
690.9	9800.0
690.8	9757.0
690.7	9627.0
690.6	9810.0
690.5	9846.0
690.4	9850.0
690.3	9783.0
690.2	9825.0
690.1	9799.0
690.0	9796.0
689.9	9863.0
689.8	9844.0
689.7	9872.0
689.6	9803.0
689.5	9785.0
689.4	9917.0
689.3	9874.0
689.2	9896.0
689.1	9900.0
689.0	9871.0
688.9	9889.0
688.8	9873.0
688.7	9833.0
688.6	9660.0
688.5	9831.0
688.4	9854.0
688.3	9767.0
688.2	9783.0
688.1	9840.0
688.0	9955.0
687.9	9773.0
687.8	9881.0
687.7	10022.0
687.6	9976.0
687.5	9903.0
687.4	10007.0
687.3	9984.0
687.2	9975.0
687.1	9923.0
687.0	10058.0
686.9	10183.0
686.8	10302.0
686.7	10198.0
686.6	10136.0
686.5	10264.0
686.4	10370.0
686.3	10506.0
686.2	10507.0
686.1	10576.0
686.0	10741.0
685.9	10710.0
685.8	10879.0
685.7	11059.0
685.6	11221.0
685.5	11132.0
685.4	11453.0
685.3	11750.0
685.2	11960.0
685.1	12449.0
685.0	12937.0
684.9	13706.0
684.8	14641.0
684.7	15307.0
684.6	15986.0
684.5	16127.0
684.4	16329.0
684.3	16364.0
684.2	15961.0
684.1	15338.0
684.0	14649.0
683.9	13816.0
683.8	12825.0
683.7	12179.0
683.6	11696.0
683.5	11114.0
683.4	10713.0
683.3	10507.0
683.2	10506.0
683.1	10291.0
683.0	10105.0
682.9	9945.0
682.8	9826.0
682.7	9897.0
682.6	9795.0
682.5	9725.0
682.4	9728.0
682.3	9701.0
682.2	9706.0
682.1	9607.0
682.0	9623.0
681.9	9474.0
681.8	9570.0
681.7	9728.0
681.6	9612.0
681.5	9615.0
681.4	9649.0
681.3	9800.0
681.2	9806.0
681.1	9760.0
681.0	9751.0
680.9	9645.0
680.8	9677.0
680.7	9735.0
680.6	9665.0
680.5	9723.0
680.4	9698.0
680.3	9814.0
680.2	9761.0
680.1	9643.0
680.0	9675.0
679.9	9388.0
679.8	9590.0
679.7	9648.0
679.6	9726.0
679.5	9553.0
679.4	9540.0
679.3	9686.0
679.2	9564.0
679.1	9735.0
679.0	9696.0
678.9	9647.0
678.8	9597.0
678.7	9649.0
678.6	9790.0
678.5	9644.0
678.4	9685.0
678.3	9680.0
678.2	9622.0
678.1	9647.0
678.0	9735.0
677.9	9611.0
677.8	9625.0
677.7	9721.0
677.6	9632.0
677.5	9636.0
677.4	9678.0
677.3	9631.0
677.2	9534.0
677.1	9690.0
677.0	9597.0
676.9	9660.0
676.8	9857.0
676.7	9702.0
676.6	9696.0
676.5	9715.0
676.4	9727.0
676.3	9486.0
676.2	9576.0
676.1	9627.0
676.0	9468.0
675.9	9543.0
675.8	9615.0
675.7	9771.0
675.6	9649.0
675.5	9742.0
675.4	9614.0
675.3	9652.0
675.2	9659.0
675.1	9739.0
675.0	9735.0

File: MX-HT 0p1 20Ap location X1 in image_MXHT0p120ApO1s_O1s.txt
BE/eV	PE: 20.0 eV
540.0	12775.0
539.9	12864.0
539.8	12678.0
539.7	12686.0
539.6	12719.0
539.5	12555.0
539.4	12461.0
539.3	12686.0
539.2	12554.0
539.1	12584.0
539.0	12757.0
538.9	12770.0
538.8	12737.0
538.7	12651.0
538.6	12741.0
538.5	12697.0
538.4	12615.0
538.3	12540.0
538.2	12659.0
538.1	12653.0
538.0	12656.0
537.9	12506.0
537.8	12543.0
537.7	12768.0
537.6	12517.0
537.5	12626.0
537.4	12626.0
537.3	12589.0
537.2	12709.0
537.1	12813.0
537.0	12799.0
536.9	12686.0
536.8	12669.0
536.7	12732.0
536.6	12781.0
536.5	12581.0
536.4	12560.0
536.3	12648.0
536.2	12746.0
536.1	12694.0
536.0	12698.0
535.9	12669.0
535.8	12850.0
535.7	12852.0
535.6	12761.0
535.5	12818.0
535.4	12913.0
535.3	12745.0
535.2	12772.0
535.1	13004.0
535.0	12978.0
534.9	12798.0
534.8	12919.0
534.7	12812.0
534.6	12989.0
534.5	13044.0
534.4	13021.0
534.3	12998.0
534.2	12980.0
534.1	13163.0
534.0	13414.0
533.9	13467.0
533.8	13520.0
533.7	13823.0
533.6	13790.0
533.5	13990.0
533.4	14225.0
533.3	14315.0
533.2	14724.0
533.1	14930.0
533.0	15124.0
532.9	15254.0
532.8	15832.0
532.7	16146.0
532.6	16083.0
532.5	16305.0
532.4	16639.0
532.3	17003.0
532.2	17061.0
532.1	17293.0
532.0	17399.0
531.9	17609.0
531.8	17803.0
531.7	17880.0
531.6	18068.0
531.5	17932.0
531.4	18114.0
531.3	18258.0
531.2	18521.0
531.1	18347.0
531.0	18475.0
530.9	18787.0
530.8	19127.0
530.7	19346.0
530.6	19626.0
530.5	19928.0
530.4	20347.0
530.3	20587.0
530.2	20732.0
530.1	20866.0
530.0	20488.0
529.9	20335.0
529.8	20052.0
529.7	19570.0
529.6	19368.0
529.5	19031.0
529.4	18968.0
529.3	19069.0
529.2	18941.0
529.1	18970.0
529.0	18596.0
528.9	17709.0
528.8	16762.0
528.7	15457.0
528.6	14533.0
528.5	13792.0
528.4	13236.0
528.3	12888.0
528.2	12514.0
528.1	12359.0
528.0	12191.0
527.9	12112.0
527.8	12205.0
527.7	12168.0
527.6	12306.0
527.5	12253.0
527.4	12031.0
527.3	12021.0
527.2	11985.0
527.1	12026.0
527.0	12001.0
526.9	11985.0
526.8	11804.0
526.7	12055.0
526.6	11993.0
526.5	12010.0
526.4	11917.0
526.3	11903.0
526.2	11855.0
526.1	11961.0
526.0	11849.0
525.9	11837.0
525.8	11852.0
525.7	11815.0
525.6	11838.0
525.5	11852.0
525.4	11909.0
525.3	11908.0
525.2	11909.0
525.1	11841.0
525.0	11903.0

File: MX-HT 0p1 20Ap location X1 in image_MXHT0p120ApTi2p_Ti2p.txt
BE/eV	PE: 20.0 eV
470.0	19120.0
469.9	19185.0
469.8	18963.0
469.7	18836.0
469.6	19113.0
469.5	19047.0
469.4	19025.0
469.3	18926.0
469.2	18858.0
469.1	18868.0
469.0	18854.0
468.9	19087.0
468.8	18797.0
468.7	18613.0
468.6	18858.0
468.5	18737.0
468.4	18878.0
468.3	18783.0
468.2	18746.0
468.1	18813.0
468.0	18714.0
467.9	18762.0
467.8	18783.0
467.7	18777.0
467.6	18726.0
467.5	18683.0
467.4	18645.0
467.3	18820.0
467.2	18644.0
467.1	18630.0
467.0	18631.0
466.9	18756.0
466.8	18678.0
466.7	18718.0
466.6	18780.0
466.5	18858.0
466.4	18862.0
466.3	18839.0
466.2	18736.0
466.1	18904.0
466.0	18959.0
465.9	19061.0
465.8	19305.0
465.7	19216.0
465.6	19181.0
465.5	19454.0
465.4	19604.0
465.3	19666.0
465.2	20016.0
465.1	20175.0
465.0	20089.0
464.9	20470.0
464.8	20760.0
464.7	20610.0
464.6	20555.0
464.5	20382.0
464.4	20647.0
464.3	20647.0
464.2	20831.0
464.1	20667.0
464.0	20607.0
463.9	20659.0
463.8	20878.0
463.7	20651.0
463.6	20590.0
463.5	20608.0
463.4	20744.0
463.3	20664.0
463.2	20685.0
463.1	20694.0
463.0	20780.0
462.9	21026.0
462.8	21125.0
462.7	21274.0
462.6	21637.0
462.5	21864.0
462.4	21877.0
462.3	22286.0
462.2	22313.0
462.1	22615.0
462.0	22469.0
461.9	23044.0
461.8	23018.0
461.7	23595.0
461.6	23515.0
461.5	23988.0
461.4	24067.0
461.3	24418.0
461.2	24634.0
461.1	24662.0
461.0	24995.0
460.9	24951.0
460.8	24643.0
460.7	25086.0
460.6	25221.0
460.5	25053.0
460.4	24837.0
460.3	24244.0
460.2	23959.0
460.1	23336.0
460.0	22943.0
459.9	22433.0
459.8	21919.0
459.7	21822.0
459.6	21815.0
459.5	21918.0
459.4	22127.0
459.3	22829.0
459.2	23164.0
459.1	23708.0
459.0	24592.0
458.9	25366.0
458.8	25531.0
458.7	25740.0
458.6	25831.0
458.5	25736.0
458.4	25464.0
458.3	24871.0
458.2	23902.0
458.1	23113.0
458.0	22268.0
457.9	21643.0
457.8	21419.0
457.7	20893.0
457.6	20611.0
457.5	20549.0
457.4	20506.0
457.3	20867.0
457.2	21054.0
457.1	21180.0
457.0	21551.0
456.9	22251.0
456.8	22603.0
456.7	23158.0
456.6	23539.0
456.5	23984.0
456.4	24427.0
456.3	25041.0
456.2	25741.0
456.1	26377.0
456.0	26843.0
455.9	27501.0
455.8	28059.0
455.7	28625.0
455.6	29394.0
455.5	29472.0
455.4	30337.0
455.3	30711.0
455.2	31212.0
455.1	31557.0
455.0	31977.0
454.9	32152.0
454.8	32402.0
454.7	32154.0
454.6	31890.0
454.5	31434.0
454.4	30893.0
454.3	30153.0
454.2	28802.0
454.1	26429.0
454.0	23064.0
453.9	19633.0
453.8	16888.0
453.7	15025.0
453.6	13894.0
453.5	13188.0
453.4	12763.0
453.3	12574.0
453.2	12392.0
453.1	12416.0
453.0	12366.0
452.9	12138.0
452.8	12067.0
452.7	12092.0
452.6	12020.0
452.5	11880.0
452.4	11736.0
452.3	11947.0
452.2	11853.0
452.1	11840.0
452.0	11828.0
451.9	11817.0
451.8	11860.0
451.7	11815.0
451.6	11681.0
451.5	11820.0
451.4	11704.0
451.3	11545.0
451.2	11808.0
451.1	11609.0
451.0	11585.0
450.9	11605.0
450.8	11570.0
450.7	11642.0
450.6	11634.0
450.5	11736.0
450.4	11614.0
450.3	11660.0
450.2	11682.0
450.1	11652.0
450.0	11529.0

File: MX-HT 0p1 20Ap location X1 in image_MXHT0p120ApTi2s_Ti2s.txt
BE/eV	PE: 20.0 eV
579.0	14740.0
578.8	14614.0
578.6	14682.0
578.4	14654.0
578.2	14758.0
578.0	14723.0
577.8	14660.0
577.6	14686.0
577.4	14771.0
577.2	14625.0
577.0	14718.0
576.8	14618.0
576.6	14417.0
576.4	14560.0
576.2	14706.0
576.0	14598.0
575.8	14599.0
575.6	14617.0
575.4	14451.0
575.2	14597.0
575.0	14738.0
574.8	14571.0
574.6	14567.0
574.4	14616.0
574.2	14669.0
574.0	14614.0
573.8	14370.0
573.6	14501.0
573.4	14635.0
573.2	14623.0
573.0	14659.0
572.8	14559.0
572.6	14476.0
572.4	14383.0
572.2	14436.0
572.0	14368.0
571.8	14302.0
571.6	14316.0
571.4	14377.0
571.2	14487.0
571.0	14228.0
570.8	14428.0
570.6	14250.0
570.4	14258.0
570.2	14437.0
570.0	14327.0
569.8	14427.0
569.6	14392.0
569.4	14432.0
569.2	14302.0
569.0	14543.0
568.8	14451.0
568.6	14339.0
568.4	14350.0
568.2	14423.0
568.0	14584.0
567.8	14745.0
567.6	14609.0
567.4	14579.0
567.2	14739.0
567.0	14897.0
566.8	14747.0
566.6	14890.0
566.4	15000.0
566.2	15074.0
566.0	15327.0
565.8	15021.0
565.6	15397.0
565.4	15419.0
565.2	15502.0
565.0	15646.0
564.8	15528.0
564.6	15735.0
564.4	15640.0
564.2	15736.0
564.0	15729.0
563.8	15836.0
563.6	15921.0
563.4	16057.0
563.2	16114.0
563.0	16059.0
562.8	15953.0
562.6	16044.0
562.4	16068.0
562.2	16340.0
562.0	16349.0
561.8	16145.0
561.6	16141.0
561.4	16368.0
561.2	15883.0
561.0	15837.0
560.8	15826.0
560.6	15777.0
560.4	15524.0
560.2	15658.0
560.0	15258.0
559.8	15291.0
559.6	15055.0
559.4	14839.0
559.2	14871.0
559.0	14551.0
558.8	14558.0
558.6	14358.0
558.4	14370.0
558.2	14318.0
558.0	14268.0
557.8	13928.0
557.6	13938.0
557.4	13785.0
557.2	13815.0
557.0	13935.0
556.8	13707.0
556.6	13734.0
556.4	13773.0
556.2	13640.0
556.0	13500.0
555.8	13715.0
555.6	13583.0
555.4	13500.0
555.2	13453.0
555.0	13573.0
554.8	13526.0
554.6	13362.0
554.4	13478.0
554.2	13418.0
554.0	13311.0
553.8	13277.0
553.6	13417.0
553.4	13328.0
553.2	13440.0
553.0	13125.0
552.8	13238.0
552.6	13237.0
552.4	13134.0
552.2	13308.0
552.0	13428.0
551.8	13218.0
551.6	13328.0
551.4	13177.0
551.2	13070.0
551.0	13295.0
550.8	12989.0
550.6	13217.0
550.4	12938.0
550.2	13179.0
550.0	13097.0
549.8	13311.0
549.6	13296.0
549.4	13142.0
549.2	13229.0
549.0	13208.0

File: MX-HT 0p1 20Ap location X1 in image_MXHT0p120ApTi3p_Ti3p.txt
BE/eV	PE: 20.0 eV
49.0	506.0
48.8	517.0
48.6	507.0
48.4	493.0
48.2	502.0
48.0	522.0
47.8	487.0
47.6	465.0
47.4	497.0
47.2	479.0
47.0	491.0
46.8	520.0
46.6	504.0
46.4	501.0
46.2	499.0
46.0	502.0
45.8	465.0
45.6	484.0
45.4	497.0
45.2	488.0
45.0	496.0
44.8	473.0
44.6	458.0
44.4	465.0
44.2	449.0
44.0	447.0
43.8	459.0
43.6	419.0
43.4	478.0
43.2	470.0
43.0	443.0
42.8	461.0
42.6	464.0
42.4	448.0
42.2	452.0
42.0	476.0
41.8	463.0
41.6	448.0
41.4	477.0
41.2	465.0
41.0	471.0
40.8	501.0
40.6	466.0
40.4	513.0
40.2	529.0
40.0	500.0
39.8	517.0
39.6	520.0
39.4	542.0
39.2	551.0
39.0	567.0
38.8	575.0
38.6	579.0
38.4	662.0
38.2	674.0
38.0	739.0
37.8	737.0
37.6	760.0
37.4	786.0
37.2	863.0
37.0	853.0
36.8	888.0
36.6	903.0
36.4	877.0
36.2	856.0
36.0	886.0
35.8	926.0
35.6	949.0
35.4	978.0
35.2	963.0
35.0	1075.0
34.8	1133.0
34.6	1173.0
34.4	1153.0
34.2	1191.0
34.0	1170.0
33.8	1122.0
33.6	1114.0
33.4	970.0
33.2	880.0
33.0	767.0
32.8	650.0
32.6	488.0
32.4	417.0
32.2	389.0
32.0	317.0
31.8	297.0
31.6	287.0
31.4	275.0
31.2	273.0
31.0	280.0
30.8	279.0
30.6	273.0
30.4	253.0
30.2	276.0
30.0	294.0
29.8	302.0
29.6	297.0
29.4	323.0
29.2	318.0
29.0	317.0
28.8	322.0
28.6	288.0
28.4	309.0
28.2	275.0
28.0	261.0
27.8	265.0
27.6	245.0
27.4	236.0
27.2	222.0
27.0	223.0
26.8	222.0
26.6	227.0
26.4	213.0
26.2	223.0
26.0	227.0
25.8	223.0
25.6	236.0
25.4	199.0
25.2	250.0
25.0	235.0
24.8	230.0
24.6	235.0
24.4	250.0
24.2	225.0
24.0	259.0
23.8	247.0
23.6	279.0
23.4	267.0
23.2	258.0
23.0	295.0
22.8	270.0
22.6	295.0
22.4	310.0
22.2	300.0
22.0	338.0
21.8	328.0
21.6	345.0
21.4	363.0
21.2	366.0
21.0	355.0
20.8	357.0
20.6	367.0
20.4	353.0
20.2	323.0
20.0	309.0
19.8	311.0
19.6	332.0
19.4	329.0
19.2	335.0
19.0	309.0

File: MX-HT 0p1 20Ap location X1 in image_MXHT0p120ApTi3s_Ti3s.txt
BE/eV	PE: 20.0 eV
74.0	569.0
73.8	594.0
73.6	574.0
73.4	535.0
73.2	558.0
73.0	544.0
72.8	570.0
72.6	545.0
72.4	576.0
72.2	556.0
72.0	548.0
71.8	519.0
71.6	542.0
71.4	546.0
71.2	555.0
71.0	537.0
70.8	533.0
70.6	545.0
70.4	561.0
70.2	580.0
70.0	530.0
69.8	529.0
69.6	578.0
69.4	516.0
69.2	525.0
69.0	514.0
68.8	500.0
68.6	475.0
68.4	507.0
68.2	531.0
68.0	522.0
67.8	529.0
67.6	504.0
67.4	499.0
67.2	515.0
67.0	513.0
66.8	547.0
66.6	494.0
66.4	537.0
66.2	525.0
66.0	554.0
65.8	537.0
65.6	542.0
65.4	529.0
65.2	537.0
65.0	542.0
64.8	569.0
64.6	561.0
64.4	569.0
64.2	579.0
64.0	598.0
63.8	622.0
63.6	590.0
63.4	613.0
63.2	651.0
63.0	670.0
62.8	646.0
62.6	696.0
62.4	723.0
62.2	747.0
62.0	770.0
61.8	736.0
61.6	788.0
61.4	801.0
61.2	749.0
61.0	793.0
60.8	790.0
60.6	793.0
60.4	835.0
60.2	833.0
60.0	858.0
59.8	924.0
59.6	851.0
59.4	865.0
59.2	897.0
59.0	914.0
58.8	858.0
58.6	869.0
58.4	823.0
58.2	796.0
58.0	720.0
57.8	700.0
57.6	649.0
57.4	648.0
57.2	629.0
57.0	612.0
56.8	572.0
56.6	535.0
56.4	545.0
56.2	576.0
56.0	533.0
55.8	541.0
55.6	543.0
55.4	535.0
55.2	528.0
55.0	496.0
54.8	516.0
54.6	524.0
54.4	512.0
54.2	542.0
54.0	496.0
53.8	497.0
53.6	531.0
53.4	515.0
53.2	489.0
53.0	480.0
52.8	516.0
52.6	496.0
52.4	527.0
52.2	485.0
52.0	531.0
51.8	492.0
51.6	515.0
51.4	526.0
51.2	526.0
51.0	525.0
50.8	529.0
50.6	452.0
50.4	499.0
50.2	514.0
50.0	487.0
49.8	537.0
49.6	514.0
49.4	515.0
49.2	505.0
49.0	511.0
48.8	475.0
48.6	525.0
48.4	500.0
48.2	518.0
48.0	518.0
47.8	509.0
47.6	498.0
47.4	482.0
47.2	522.0
47.0	497.0
46.8	526.0
46.6	512.0
46.4	493.0
46.2	480.0
46.0	502.0
45.8	508.0
45.6	492.0
45.4	478.0
45.2	465.0
45.0	463.0
44.8	453.0
44.6	462.0
44.4	432.0
44.2	488.0
44.0	472.0

File: MX-HT 0p1 20Ap location X1 in image_MXHT0p120Apwide_wide.txt
BE/eV	PE: 160.0 eV
1200.0	55185.0
1195.0	55123.0
1190.0	55981.0
1185.0	56594.0
1180.0	57237.0
1175.0	58398.0
1170.0	58767.0
1165.0	59451.0
1160.0	60315.0
1155.0	61605.0
1150.0	62331.0
1145.0	62163.0
1140.0	62767.0
1135.0	65243.0
1130.0	66303.0
1125.0	66875.0
1120.0	66394.0
1115.0	66378.0
1110.0	69760.0
1105.0	75773.0
1100.0	72015.0
1095.0	57446.0
1090.0	52665.0
1085.0	51148.0
1080.0	51506.0
1075.0	53699.0
1070.0	58947.0
1065.0	54874.0
1060.0	47491.0
1055.0	46942.0
1050.0	46884.0
1045.0	47499.0
1040.0	47921.0
1035.0	48741.0
1030.0	48039.0
1025.0	48248.0
1020.0	48715.0
1015.0	49362.0
1010.0	49460.0
1005.0	50330.0
1000.0	51634.0
995.0	52554.0
990.0	51668.0
985.0	51048.0
980.0	52473.0
975.0	59301.0
970.0	54569.0
965.0	47242.0
960.0	45402.0
955.0	45589.0
950.0	45416.0
945.0	45813.0
940.0	45861.0
935.0	46306.0
930.0	46895.0
925.0	46668.0
920.0	47565.0
915.0	47784.0
910.0	47963.0
905.0	47903.0
900.0	48786.0
895.0	48710.0
890.0	49186.0
885.0	49506.0
880.0	49763.0
875.0	50666.0
870.0	50546.0
865.0	50310.0
860.0	51023.0
855.0	53171.0
850.0	51306.0
845.0	51917.0
840.0	51190.0
835.0	52915.0
830.0	56539.0
825.0	52206.0
820.0	49597.0
815.0	50299.0
810.0	50542.0
805.0	50917.0
800.0	50741.0
795.0	51130.0
790.0	51203.0
785.0	51501.0
780.0	51939.0
775.0	52001.0
770.0	52507.0
765.0	52583.0
760.0	53162.0
755.0	53399.0
750.0	53516.0
745.0	53952.0
740.0	54489.0
735.0	54536.0
730.0	55085.0
725.0	55005.0
720.0	55299.0
715.0	55919.0
710.0	56652.0
705.0	56684.0
700.0	55499.0
695.0	55689.0
690.0	56504.0
685.0	71799.0
680.0	55507.0
675.0	55784.0
670.0	55643.0
665.0	56251.0
660.0	56610.0
655.0	56852.0
650.0	57051.0
645.0	57668.0
640.0	58320.0
635.0	58405.0
630.0	59417.0
625.0	59454.0
620.0	59864.0
615.0	60561.0
610.0	60976.0
605.0	61086.0
600.0	61354.0
595.0	62309.0
590.0	63142.0
585.0	64510.0
580.0	65083.0
575.0	64967.0
570.0	64790.0
565.0	69811.0
560.0	69587.0
555.0	60875.0
550.0	58867.0
545.0	58886.0
540.0	57853.0
535.0	59522.0
530.0	84385.0
525.0	54336.0
520.0	54345.0
515.0	54420.0
510.0	55321.0
505.0	55545.0
500.0	55373.0
495.0	55347.0
490.0	57012.0
485.0	58845.0
480.0	60817.0
475.0	61357.0
470.0	60310.0
465.0	62783.0
460.0	75104.0
455.0	87295.0
450.0	35528.0
445.0	34574.0
440.0	34755.0
435.0	34683.0
430.0	34641.0
425.0	34676.0
420.0	34927.0
415.0	34785.0
410.0	35008.0
405.0	35418.0
400.0	36309.0
395.0	35247.0
390.0	35405.0
385.0	35479.0
380.0	35722.0
375.0	35920.0
370.0	35916.0
365.0	35585.0
360.0	36002.0
355.0	36279.0
350.0	36794.0
345.0	36981.0
340.0	37173.0
335.0	35883.0
330.0	34757.0
325.0	36045.0
320.0	38953.0
315.0	40066.0
310.0	38896.0
305.0	31086.0
300.0	22755.0
295.0	22773.0
290.0	36015.0
285.0	87351.0
280.0	12719.0
275.0	4417.0
270.0	5128.0
265.0	4191.0
260.0	4074.0
255.0	4206.0
250.0	4191.0
245.0	4274.0
240.0	4091.0
235.0	4140.0
230.0	4313.0
225.0	4473.0
220.0	4344.0
215.0	4291.0
210.0	4300.0
205.0	4340.0
200.0	5806.0
195.0	4283.0
190.0	4236.0
185.0	4245.0
180.0	4315.0
175.0	4336.0
170.0	4517.0
165.0	4479.0
160.0	4568.0
155.0	4688.0
150.0	4737.0
145.0	4607.0
140.0	4758.0
135.0	4733.0
130.0	4795.0
125.0	4841.0
120.0	4869.0
115.0	5084.0
110.0	5027.0
105.0	5237.0
100.0	5565.0
95.0	5101.0
90.0	5541.0
85.0	5809.0
80.0	5792.0
75.0	5656.0
70.0	5349.0
65.0	5763.0
60.0	8274.0
55.0	5496.0
50.0	5247.0
45.0	5032.0
40.0	5320.0
35.0	10129.0
30.0	3012.0
25.0	2308.0
20.0	3227.0
15.0	2458.0
10.0	2049.0
5.0	1649.0
0.0	193.0
-5.0	6.0

File: MX-HT 0p5 20Ap location H1 in image_MXHT0p520ApC1s_C1s.txt
BE/eV	PE: 20.0 eV
295.0	717.0
294.9	746.0
294.8	701.0
294.7	691.0
294.6	707.0
294.5	723.0
294.4	710.0
294.3	723.0
294.2	730.0
294.1	744.0
294.0	755.0
293.9	722.0
293.8	751.0
293.7	732.0
293.6	720.0
293.5	745.0
293.4	784.0
293.3	759.0
293.2	754.0
293.1	762.0
293.0	752.0
292.9	756.0
292.8	776.0
292.7	797.0
292.6	820.0
292.5	833.0
292.4	801.0
292.3	800.0
292.2	808.0
292.1	801.0
292.0	809.0
291.9	810.0
291.8	846.0
291.7	838.0
291.6	897.0
291.5	886.0
291.4	900.0
291.3	952.0
291.2	930.0
291.1	864.0
291.0	901.0
290.9	937.0
290.8	908.0
290.7	954.0
290.6	922.0
290.5	946.0
290.4	927.0
290.3	932.0
290.2	961.0
290.1	912.0
290.0	940.0
289.9	926.0
289.8	886.0
289.7	882.0
289.6	913.0
289.5	940.0
289.4	926.0
289.3	931.0
289.2	890.0
289.1	912.0
289.0	928.0
288.9	954.0
288.8	939.0
288.7	908.0
288.6	923.0
288.5	962.0
288.4	964.0
288.3	924.0
288.2	885.0
288.1	910.0
288.0	936.0
287.9	939.0
287.8	898.0
287.7	975.0
287.6	956.0
287.5	923.0
287.4	936.0
287.3	923.0
287.2	944.0
287.1	978.0
287.0	998.0
286.9	956.0
286.8	971.0
286.7	1057.0
286.6	1053.0
286.5	1113.0
286.4	1150.0
286.3	1152.0
286.2	1226.0
286.1	1291.0
286.0	1295.0
285.9	1324.0
285.8	1394.0
285.7	1420.0
285.6	1482.0
285.5	1503.0
285.4	1596.0
285.3	1758.0
285.2	1830.0
285.1	1905.0
285.0	2066.0
284.9	2053.0
284.8	2341.0
284.7	2517.0
284.6	2765.0
284.5	3204.0
284.4	3980.0
284.3	5113.0
284.2	6802.0
284.1	9072.0
284.0	11266.0
283.9	12446.0
283.8	11495.0
283.7	8681.0
283.6	5484.0
283.5	3421.0
283.4	2277.0
283.3	1591.0
283.2	1271.0
283.1	1050.0
283.0	894.0
282.9	793.0
282.8	761.0
282.7	660.0
282.6	618.0
282.5	607.0
282.4	611.0
282.3	608.0
282.2	654.0
282.1	649.0
282.0	707.0
281.9	781.0
281.8	965.0
281.7	1235.0
281.6	1658.0
281.5	2097.0
281.4	2442.0
281.3	2331.0
281.2	1954.0
281.1	1376.0
281.0	946.0
280.9	619.0
280.8	454.0
280.7	395.0
280.6	323.0
280.5	288.0
280.4	293.0
280.3	317.0
280.2	284.0
280.1	271.0
280.0	252.0
279.9	267.0
279.8	261.0
279.7	256.0
279.6	266.0
279.5	249.0
279.4	252.0
279.3	261.0
279.2	233.0
279.1	239.0
279.0	257.0
278.9	243.0
278.8	238.0
278.7	244.0
278.6	242.0
278.5	237.0
278.4	251.0
278.3	266.0
278.2	258.0
278.1	252.0
278.0	245.0
277.9	272.0
277.8	229.0
277.7	244.0
277.6	265.0
277.5	260.0
277.4	264.0
277.3	242.0
277.2	221.0
277.1	220.0
277.0	229.0

File: MX-HT 0p5 20Ap location H1 in image_MXHT0p520ApCl2p_Cl2p.txt
BE/eV	PE: 20.0 eV
208.0	1772.0
207.9	1721.0
207.8	1750.0
207.7	1742.0
207.6	1745.0
207.5	1695.0
207.4	1781.0
207.3	1660.0
207.2	1741.0
207.1	1696.0
207.0	1731.0
206.9	1736.0
206.8	1690.0
206.7	1688.0
206.6	1749.0
206.5	1704.0
206.4	1710.0
206.3	1721.0
206.2	1705.0
206.1	1743.0
206.0	1737.0
205.9	1737.0
205.8	1675.0
205.7	1708.0
205.6	1732.0
205.5	1674.0
205.4	1695.0
205.3	1773.0
205.2	1741.0
205.1	1658.0
205.0	1705.0
204.9	1723.0
204.8	1721.0
204.7	1734.0
204.6	1716.0
204.5	1729.0
204.4	1765.0
204.3	1770.0
204.2	1690.0
204.1	1784.0
204.0	1720.0
203.9	1731.0
203.8	1744.0
203.7	1718.0
203.6	1725.0
203.5	1776.0
203.4	1739.0
203.3	1754.0
203.2	1681.0
203.1	1778.0
203.0	1843.0
202.9	1753.0
202.8	1740.0
202.7	1733.0
202.6	1744.0
202.5	1801.0
202.4	1704.0
202.3	1821.0
202.2	1767.0
202.1	1749.0
202.0	1816.0
201.9	1860.0
201.8	1814.0
201.7	1874.0
201.6	1902.0
201.5	1875.0
201.4	1906.0
201.3	1939.0
201.2	1924.0
201.1	2024.0
201.0	2004.0
200.9	2066.0
200.8	2194.0
200.7	2276.0
200.6	2507.0
200.5	2700.0
200.4	2834.0
200.3	2923.0
200.2	2937.0
200.1	2775.0
200.0	2645.0
199.9	2525.0
199.8	2349.0
199.7	2300.0
199.6	2216.0
199.5	2202.0
199.4	2215.0
199.3	2276.0
199.2	2437.0
199.1	2711.0
199.0	2965.0
198.9	3203.0
198.8	3495.0
198.7	3653.0
198.6	3698.0
198.5	3472.0
198.4	3182.0
198.3	2743.0
198.2	2546.0
198.1	2204.0
198.0	2003.0
197.9	1926.0
197.8	1782.0
197.7	1643.0
197.6	1760.0
197.5	1728.0
197.4	1654.0
197.3	1613.0
197.2	1658.0
197.1	1714.0
197.0	1687.0
196.9	1693.0
196.8	1633.0
196.7	1619.0
196.6	1628.0
196.5	1658.0
196.4	1717.0
196.3	1685.0
196.2	1646.0
196.1	1631.0
196.0	1669.0
195.9	1703.0
195.8	1674.0
195.7	1669.0
195.6	1674.0
195.5	1663.0
195.4	1715.0
195.3	1665.0
195.2	1651.0
195.1	1690.0
195.0	1638.0