Folder: python_code_MXene_VRFB/XPS/Casa format

File: HT CP 19 Ap location C1 in image-0.6621_HTCP19ApCl2p_Cl2p.txt
BE/eV	PE: 20.0 eV
208.0	366.0
207.9	379.0
207.8	363.0
207.7	384.0
207.6	356.0
207.5	349.0
207.4	371.0
207.3	408.0
207.2	367.0
207.1	337.0
207.0	348.0
206.9	359.0
206.8	370.0
206.7	375.0
206.6	390.0
206.5	359.0
206.4	376.0
206.3	376.0
206.2	343.0
206.1	360.0
206.0	361.0
205.9	359.0
205.8	366.0
205.7	350.0
205.6	380.0
205.5	375.0
205.4	361.0
205.3	360.0
205.2	353.0
205.1	371.0
205.0	357.0
204.9	363.0
204.8	371.0
204.7	356.0
204.6	362.0
204.5	363.0
204.4	348.0
204.3	375.0
204.2	362.0
204.1	345.0
204.0	367.0
203.9	360.0
203.8	387.0
203.7	370.0
203.6	372.0
203.5	371.0
203.4	345.0
203.3	365.0
203.2	371.0
203.1	353.0
203.0	342.0
202.9	356.0
202.8	364.0
202.7	364.0
202.6	353.0
202.5	345.0
202.4	360.0
202.3	372.0
202.2	374.0
202.1	377.0
202.0	358.0
201.9	352.0
201.8	374.0
201.7	376.0
201.6	398.0
201.5	379.0
201.4	361.0
201.3	372.0
201.2	389.0
201.1	359.0
201.0	376.0
200.9	377.0
200.8	364.0
200.7	352.0
200.6	383.0
200.5	360.0
200.4	341.0
200.3	373.0
200.2	369.0
200.1	365.0
200.0	381.0
199.9	365.0
199.8	356.0
199.7	372.0
199.6	376.0
199.5	369.0
199.4	380.0
199.3	376.0
199.2	397.0
199.1	358.0
199.0	365.0
198.9	347.0
198.8	342.0
198.7	362.0
198.6	363.0
198.5	381.0
198.4	386.0
198.3	362.0
198.2	383.0
198.1	402.0
198.0	396.0
197.9	362.0
197.8	340.0
197.7	360.0
197.6	343.0
197.5	337.0
197.4	337.0
197.3	370.0
197.2	374.0
197.1	356.0
197.0	388.0
196.9	397.0
196.8	362.0
196.7	382.0
196.6	350.0
196.5	329.0
196.4	370.0
196.3	362.0
196.2	355.0
196.1	358.0
196.0	375.0
195.9	350.0
195.8	374.0
195.7	353.0
195.6	354.0
195.5	381.0
195.4	388.0
195.3	363.0
195.2	384.0
195.1	357.0
195.0	334.0

File: HT CP 19 Ap location C1 in image-0.6621_HTCP19ApCl2s_Cl2s.txt
BE/eV	PE: 20.0 eV
285.0	2000.0
284.8	2385.0
284.6	3074.0
284.4	4808.0
284.2	9072.0
284.0	16208.0
283.8	16484.0
283.6	7589.0
283.4	2363.0
283.2	1013.0
283.0	561.0
282.8	358.0
282.6	242.0
282.4	166.0
282.2	112.0
282.0	106.0
281.8	100.0
281.6	78.0
281.4	80.0
281.2	74.0
281.0	51.0
280.8	56.0
280.6	53.0
280.4	52.0
280.2	61.0
280.0	53.0
279.8	45.0
279.6	46.0
279.4	49.0
279.2	38.0
279.0	37.0
278.8	46.0
278.6	28.0
278.4	33.0
278.2	30.0
278.0	36.0
277.8	34.0
277.6	36.0
277.4	45.0
277.2	42.0
277.0	29.0
276.8	42.0
276.6	31.0
276.4	29.0
276.2	35.0
276.0	32.0
275.8	30.0
275.6	34.0
275.4	32.0
275.2	28.0
275.0	35.0
274.8	38.0
274.6	33.0
274.4	33.0
274.2	36.0
274.0	29.0
273.8	26.0
273.6	35.0
273.4	43.0
273.2	30.0
273.0	33.0
272.8	35.0
272.6	27.0
272.4	34.0
272.2	30.0
272.0	32.0
271.8	34.0
271.6	38.0
271.4	30.0
271.2	34.0
271.0	23.0
270.8	25.0
270.6	32.0
270.4	40.0
270.2	27.0
270.0	37.0
269.8	41.0
269.6	26.0
269.4	37.0
269.2	35.0
269.0	36.0
268.8	31.0
268.6	31.0
268.4	31.0
268.2	43.0
268.0	26.0
267.8	30.0
267.6	27.0
267.4	38.0
267.2	34.0
267.0	30.0
266.8	34.0
266.6	38.0
266.4	29.0
266.2	27.0
266.0	37.0
265.8	24.0
265.6	27.0
265.4	26.0
265.2	28.0
265.0	31.0
264.8	29.0
264.6	42.0
264.4	32.0
264.2	25.0
264.0	34.0
263.8	34.0
263.6	23.0
263.4	25.0
263.2	35.0
263.0	36.0
262.8	34.0
262.6	37.0
262.4	30.0
262.2	34.0
262.0	49.0
261.8	28.0
261.6	27.0
261.4	32.0
261.2	35.0
261.0	30.0
260.8	38.0
260.6	32.0
260.4	28.0
260.2	28.0
260.0	33.0
259.8	34.0
259.6	31.0
259.4	36.0
259.2	32.0
259.0	30.0
258.8	30.0
258.6	30.0
258.4	28.0
258.2	31.0
258.0	30.0
257.8	22.0
257.6	27.0
257.4	29.0
257.2	28.0
257.0	27.0
256.8	27.0
256.6	29.0
256.4	30.0
256.2	36.0
256.0	28.0
255.8	30.0
255.6	37.0
255.4	20.0
255.2	26.0
255.0	30.0

File: HT CP 19 Ap location C1 in image-0.6621_HTCP19ApO1s_O1s.txt
BE/eV	PE: 20.0 eV
540.0	8623.0
539.9	8536.0
539.8	8526.0
539.7	8373.0
539.6	8498.0
539.5	8537.0
539.4	8553.0
539.3	8592.0
539.2	8625.0
539.1	8687.0
539.0	8556.0
538.9	8558.0
538.8	8634.0
538.7	8548.0
538.6	8608.0
538.5	8644.0
538.4	8675.0
538.3	8429.0
538.2	8791.0
538.1	8676.0
538.0	8721.0
537.9	8678.0
537.8	8704.0
537.7	8706.0
537.6	8671.0
537.5	8699.0
537.4	8740.0
537.3	8724.0
537.2	8666.0
537.1	8773.0
537.0	8747.0
536.9	8691.0
536.8	8651.0
536.7	8600.0
536.6	8661.0
536.5	8719.0
536.4	8685.0
536.3	8703.0
536.2	8770.0
536.1	8852.0
536.0	8763.0
535.9	8772.0
535.8	8664.0
535.7	8744.0
535.6	8884.0
535.5	8955.0
535.4	8892.0
535.3	8882.0
535.2	8877.0
535.1	8906.0
535.0	9002.0
534.9	8950.0
534.8	8856.0
534.7	8875.0
534.6	9079.0
534.5	9154.0
534.4	9024.0
534.3	9179.0
534.2	9175.0
534.1	9291.0
534.0	9491.0
533.9	9536.0
533.8	9514.0
533.7	9640.0
533.6	9710.0
533.5	9973.0
533.4	10154.0
533.3	10474.0
533.2	10628.0
533.1	10770.0
533.0	11040.0
532.9	11256.0
532.8	11412.0
532.7	11513.0
532.6	11697.0
532.5	11919.0
532.4	11827.0
532.3	11754.0
532.2	11656.0
532.1	11742.0
532.0	11801.0
531.9	11684.0
531.8	11627.0
531.7	11603.0
531.6	11645.0
531.5	11496.0
531.4	11509.0
531.3	11366.0
531.2	11067.0
531.1	10923.0
531.0	10934.0
530.9	10914.0
530.8	10763.0
530.7	10862.0
530.6	10686.0
530.5	10606.0
530.4	10502.0
530.3	10278.0
530.2	10248.0
530.1	9879.0
530.0	9973.0
529.9	9720.0
529.8	9484.0
529.7	9401.0
529.6	9152.0
529.5	8911.0
529.4	8883.0
529.3	8811.0
529.2	8601.0
529.1	8655.0
529.0	8626.0
528.9	8378.0
528.8	8435.0
528.7	8512.0
528.6	8498.0
528.5	8389.0
528.4	8403.0
528.3	8385.0
528.2	8318.0
528.1	8264.0
528.0	8396.0
527.9	8306.0
527.8	8207.0
527.7	8318.0
527.6	8403.0
527.5	8293.0
527.4	8353.0
527.3	8287.0
527.2	8290.0
527.1	8289.0
527.0	8248.0
526.9	8377.0
526.8	8313.0
526.7	8315.0
526.6	8261.0
526.5	8129.0
526.4	8214.0
526.3	8268.0
526.2	8318.0
526.1	8309.0
526.0	8320.0
525.9	8360.0
525.8	8187.0
525.7	8190.0
525.6	8181.0
525.5	8225.0
525.4	8236.0
525.3	8333.0
525.2	8242.0
525.1	8322.0
525.0	8408.0

File: HT CP 19 Ap location C1 in image-0.6621_HTCP19ApTi2p_Ti2p.txt
BE/eV	PE: 20.0 eV
470.0	12600.0
469.9	12668.0
469.8	12829.0
469.7	12820.0
469.6	12742.0
469.5	12697.0
469.4	12700.0
469.3	12489.0
469.2	12679.0
469.1	12755.0
469.0	12590.0
468.9	12865.0
468.8	12771.0
468.7	12559.0
468.6	12749.0
468.5	12752.0
468.4	12860.0
468.3	12724.0
468.2	12712.0
468.1	12800.0
468.0	12673.0
467.9	12571.0
467.8	12796.0
467.7	12683.0
467.6	12568.0
467.5	12728.0
467.4	12724.0
467.3	12561.0
467.2	12714.0
467.1	12699.0
467.0	12634.0
466.9	12867.0
466.8	12790.0
466.7	12598.0
466.6	12821.0
466.5	12746.0
466.4	12632.0
466.3	12874.0
466.2	12917.0
466.1	12844.0
466.0	12831.0
465.9	12635.0
465.8	12627.0
465.7	12803.0
465.6	12979.0
465.5	12825.0
465.4	12722.0
465.3	12840.0
465.2	12779.0
465.1	12621.0
465.0	12770.0
464.9	12820.0
464.8	12741.0
464.7	12700.0
464.6	12814.0
464.5	12717.0
464.4	12734.0
464.3	12643.0
464.2	12748.0
464.1	12757.0
464.0	12709.0
463.9	12584.0
463.8	12731.0
463.7	12838.0
463.6	12827.0
463.5	12850.0
463.4	12839.0
463.3	12753.0
463.2	12722.0
463.1	12787.0
463.0	12764.0
462.9	12752.0
462.8	12798.0
462.7	12721.0
462.6	12884.0
462.5	12645.0
462.4	12804.0
462.3	12776.0
462.2	12909.0
462.1	12712.0
462.0	12717.0
461.9	12520.0
461.8	12820.0
461.7	12892.0
461.6	12744.0
461.5	12819.0
461.4	12851.0
461.3	12758.0
461.2	12714.0
461.1	12888.0
461.0	12866.0
460.9	12901.0
460.8	12836.0
460.7	12659.0
460.6	12830.0
460.5	12762.0
460.4	12774.0
460.3	12831.0
460.2	12770.0
460.1	12840.0
460.0	12857.0
459.9	12902.0
459.8	12752.0
459.7	12851.0
459.6	12619.0
459.5	12791.0
459.4	12728.0
459.3	12803.0
459.2	12871.0
459.1	12902.0
459.0	12682.0
458.9	12689.0
458.8	12786.0
458.7	12752.0
458.6	12641.0
458.5	12571.0
458.4	12635.0
458.3	12720.0
458.2	12840.0
458.1	12695.0
458.0	12775.0
457.9	12764.0
457.8	12770.0
457.7	12576.0
457.6	12614.0
457.5	12844.0
457.4	12684.0
457.3	12693.0
457.2	12718.0
457.1	12706.0
457.0	12656.0
456.9	12809.0
456.8	12910.0
456.7	12860.0
456.6	12839.0
456.5	12877.0
456.4	12862.0
456.3	12846.0
456.2	12690.0
456.1	12960.0
456.0	12725.0
455.9	12642.0
455.8	12730.0
455.7	12693.0
455.6	12802.0
455.5	12798.0
455.4	12825.0
455.3	12850.0
455.2	12837.0
455.1	12876.0
455.0	12942.0
454.9	12977.0
454.8	12798.0
454.7	12805.0
454.6	12906.0
454.5	12930.0
454.4	12866.0
454.3	12750.0
454.2	12790.0
454.1	12803.0
454.0	12894.0
453.9	12967.0
453.8	12766.0
453.7	12771.0
453.6	12854.0
453.5	12827.0
453.4	12856.0
453.3	12698.0
453.2	12741.0
453.1	12810.0
453.0	12657.0
452.9	12783.0
452.8	12982.0
452.7	12917.0
452.6	12792.0
452.5	12888.0
452.4	12853.0
452.3	12867.0
452.2	12833.0
452.1	12745.0
452.0	12826.0
451.9	12699.0
451.8	12729.0
451.7	12793.0
451.6	12853.0
451.5	12824.0
451.4	12668.0
451.3	12954.0
451.2	12927.0
451.1	12819.0
451.0	12792.0
450.9	12813.0
450.8	12696.0
450.7	12666.0
450.6	12888.0
450.5	12963.0
450.4	12819.0
450.3	12829.0
450.2	12909.0
450.1	12759.0
450.0	12912.0

File: HT CP 19 Ap location C1 in image-0.6621_HTCP19ApTi3s_Ti3s.txt
BE/eV	PE: 20.0 eV
74.0	166.0
73.8	156.0
73.6	168.0
73.4	177.0
73.2	174.0
73.0	176.0
72.8	147.0
72.6	157.0
72.4	163.0
72.2	170.0
72.0	163.0
71.8	158.0
71.6	154.0
71.4	166.0
71.2	174.0
71.0	156.0
70.8	166.0
70.6	173.0
70.4	180.0
70.2	168.0
70.0	142.0
69.8	171.0
69.6	158.0
69.4	176.0
69.2	150.0
69.0	171.0
68.8	174.0
68.6	168.0
68.4	174.0
68.2	158.0
68.0	156.0
67.8	158.0
67.6	165.0
67.4	181.0
67.2	156.0
67.0	151.0
66.8	161.0
66.6	156.0
66.4	155.0
66.2	163.0
66.0	160.0
65.8	161.0
65.6	146.0
65.4	147.0
65.2	156.0
65.0	155.0
64.8	153.0
64.6	137.0
64.4	160.0
64.2	152.0
64.0	151.0
63.8	171.0
63.6	142.0
63.4	164.0
63.2	150.0
63.0	155.0
62.8	158.0
62.6	160.0
62.4	153.0
62.2	160.0
62.0	157.0
61.8	163.0
61.6	171.0
61.4	153.0
61.2	157.0
61.0	142.0
60.8	142.0
60.6	152.0
60.4	159.0
60.2	155.0
60.0	156.0
59.8	157.0
59.6	167.0
59.4	151.0
59.2	158.0
59.0	162.0
58.8	154.0
58.6	170.0
58.4	153.0
58.2	157.0
58.0	142.0
57.8	157.0
57.6	149.0
57.4	177.0
57.2	175.0
57.0	178.0
56.8	163.0
56.6	175.0
56.4	180.0
56.2	177.0
56.0	162.0
55.8	154.0
55.6	172.0
55.4	166.0
55.2	176.0
55.0	170.0
54.8	182.0
54.6	182.0
54.4	163.0
54.2	163.0
54.0	169.0
53.8	166.0
53.6	189.0
53.4	175.0
53.2	188.0
53.0	159.0
52.8	172.0
52.6	170.0
52.4	166.0
52.2	180.0
52.0	196.0
51.8	206.0
51.6	187.0
51.4	189.0
51.2	194.0
51.0	205.0
50.8	200.0
50.6	187.0
50.4	180.0
50.2	194.0
50.0	176.0
49.8	179.0
49.6	186.0
49.4	197.0
49.2	179.0
49.0	211.0
48.8	194.0
48.6	197.0
48.4	179.0
48.2	204.0
48.0	214.0
47.8	190.0
47.6	204.0
47.4	197.0
47.2	214.0
47.0	177.0
46.8	194.0
46.6	215.0
46.4	171.0
46.2	208.0
46.0	212.0
45.8	204.0
45.6	195.0
45.4	182.0
45.2	195.0
45.0	182.0
44.8	193.0
44.6	186.0
44.4	180.0
44.2	191.0
44.0	205.0

File: HT CP 19 Ap location C1 in image_HTCP19ApC1s_C1s.txt
BE/eV	PE: 20.0 eV
295.0	852.0
294.9	905.0
294.8	922.0
294.7	882.0
294.6	925.0
294.5	968.0
294.4	950.0
294.3	951.0
294.2	951.0
294.1	995.0
294.0	986.0
293.9	1000.0
293.8	1008.0
293.7	1027.0
293.6	1047.0
293.5	1024.0
293.4	999.0
293.3	1047.0
293.2	1084.0
293.1	1018.0
293.0	1048.0
292.9	1083.0
292.8	1067.0
292.7	1076.0
292.6	1120.0
292.5	1133.0
292.4	1123.0
292.3	1137.0
292.2	1151.0
292.1	1203.0
292.0	1256.0
291.9	1269.0
291.8	1262.0
291.7	1273.0
291.6	1384.0
291.5	1380.0
291.4	1443.0
291.3	1427.0
291.2	1474.0
291.1	1550.0
291.0	1565.0
290.9	1571.0
290.8	1607.0
290.7	1556.0
290.6	1561.0
290.5	1574.0
290.4	1634.0
290.3	1509.0
290.2	1566.0
290.1	1516.0
290.0	1468.0
289.9	1510.0
289.8	1481.0
289.7	1479.0
289.6	1493.0
289.5	1516.0
289.4	1449.0
289.3	1399.0
289.2	1374.0
289.1	1419.0
289.0	1392.0
288.9	1409.0
288.8	1399.0
288.7	1372.0
288.6	1348.0
288.5	1410.0
288.4	1341.0
288.3	1348.0
288.2	1349.0
288.1	1361.0
288.0	1391.0
287.9	1390.0
287.8	1430.0
287.7	1418.0
287.6	1473.0
287.5	1495.0
287.4	1450.0
287.3	1474.0
287.2	1516.0
287.1	1550.0
287.0	1605.0
286.9	1617.0
286.8	1599.0
286.7	1709.0
286.6	1758.0
286.5	1834.0
286.4	1905.0
286.3	1962.0
286.2	1922.0
286.1	2068.0
286.0	2176.0
285.9	2237.0
285.8	2329.0
285.7	2507.0
285.6	2527.0
285.5	2641.0
285.4	2727.0
285.3	2895.0
285.2	2970.0
285.1	3122.0
285.0	3313.0
284.9	3582.0
284.8	3810.0
284.7	4280.0
284.6	5053.0
284.5	5912.0
284.4	7443.0
284.3	10357.0
284.2	14370.0
284.1	19862.0
284.0	25946.0
283.9	29840.0
283.8	28438.0
283.7	22021.0
283.6	13932.0
283.5	7796.0
283.4	4350.0
283.3	2621.0
283.2	1774.0
283.1	1309.0
283.0	1007.0
282.9	780.0
282.8	627.0
282.7	508.0
282.6	388.0
282.5	324.0
282.4	299.0
282.3	245.0
282.2	220.0
282.1	200.0
282.0	184.0
281.9	166.0
281.8	161.0
281.7	170.0
281.6	144.0
281.5	132.0
281.4	140.0
281.3	132.0
281.2	119.0
281.1	101.0
281.0	108.0
280.9	101.0
280.8	104.0
280.7	96.0
280.6	90.0
280.5	76.0
280.4	85.0
280.3	77.0
280.2	73.0
280.1	91.0
280.0	79.0
279.9	72.0
279.8	81.0
279.7	78.0
279.6	75.0
279.5	75.0
279.4	74.0
279.3	66.0
279.2	73.0
279.1	75.0
279.0	73.0
278.9	62.0
278.8	60.0
278.7	63.0
278.6	56.0
278.5	68.0
278.4	72.0
278.3	56.0
278.2	62.0
278.1	57.0
278.0	61.0
277.9	52.0
277.8	67.0
277.7	69.0
277.6	65.0
277.5	63.0
277.4	56.0
277.3	66.0
277.2	68.0
277.1	55.0
277.0	58.0

File: HT CP 19 Ap location C1 in image_HTCP19ApF1s_F1s.txt
BE/eV	PE: 20.0 eV
695.0	6063.0
694.9	6011.0
694.8	6010.0
694.7	6122.0
694.6	6267.0
694.5	6215.0
694.4	6109.0
694.3	6079.0
694.2	6117.0
694.1	6114.0
694.0	6139.0
693.9	6136.0
693.8	6106.0
693.7	6033.0
693.6	5946.0
693.5	6092.0
693.4	6114.0
693.3	6075.0
693.2	6184.0
693.1	6248.0
693.0	6127.0
692.9	5984.0
692.8	6100.0
692.7	6079.0
692.6	6017.0
692.5	6005.0
692.4	6234.0
692.3	6121.0
692.2	6171.0
692.1	6068.0
692.0	6076.0
691.9	6106.0
691.8	6080.0
691.7	6093.0
691.6	6055.0
691.5	6134.0
691.4	6101.0
691.3	6173.0
691.2	6150.0
691.1	6274.0
691.0	6115.0
690.9	6155.0
690.8	5985.0
690.7	6060.0
690.6	6088.0
690.5	6124.0
690.4	6188.0
690.3	6185.0
690.2	6067.0
690.1	6117.0
690.0	6222.0
689.9	6150.0
689.8	6002.0
689.7	6189.0
689.6	6207.0
689.5	6076.0
689.4	6128.0
689.3	6156.0
689.2	6127.0
689.1	6153.0
689.0	6107.0
688.9	6115.0
688.8	6203.0
688.7	6123.0
688.6	6087.0
688.5	6145.0
688.4	6117.0
688.3	6061.0
688.2	6188.0
688.1	6166.0
688.0	6154.0
687.9	6140.0
687.8	6069.0
687.7	6115.0
687.6	6147.0
687.5	6146.0
687.4	6119.0
687.3	6119.0
687.2	6099.0
687.1	6133.0
687.0	6055.0
686.9	6164.0
686.8	6060.0
686.7	6149.0
686.6	6080.0
686.5	6082.0
686.4	6157.0
686.3	6075.0
686.2	6134.0
686.1	6164.0
686.0	6110.0
685.9	6102.0
685.8	6066.0
685.7	6161.0
685.6	6128.0
685.5	6129.0
685.4	6090.0
685.3	6032.0
685.2	6079.0
685.1	6119.0
685.0	6203.0
684.9	6152.0
684.8	6104.0
684.7	6163.0
684.6	6184.0
684.5	6089.0
684.4	6155.0
684.3	6224.0
684.2	6285.0
684.1	6110.0
684.0	6094.0
683.9	6086.0
683.8	6115.0
683.7	6116.0
683.6	6095.0
683.5	6131.0
683.4	6048.0
683.3	6146.0
683.2	6147.0
683.1	6096.0
683.0	6101.0
682.9	6057.0
682.8	6071.0
682.7	6125.0
682.6	6096.0
682.5	6217.0
682.4	6167.0
682.3	6132.0
682.2	6003.0
682.1	6158.0
682.0	6190.0
681.9	6184.0
681.8	6091.0
681.7	6168.0
681.6	6190.0
681.5	6103.0
681.4	6118.0
681.3	6053.0
681.2	6088.0
681.1	6132.0
681.0	6117.0
680.9	6197.0
680.8	6173.0
680.7	6130.0
680.6	6128.0
680.5	6220.0
680.4	6117.0
680.3	6180.0
680.2	6241.0
680.1	6003.0
680.0	5994.0
679.9	6233.0
679.8	6119.0
679.7	6111.0
679.6	6197.0
679.5	6154.0
679.4	6187.0
679.3	6093.0
679.2	6169.0
679.1	6217.0
679.0	6159.0
678.9	6160.0
678.8	6057.0
678.7	6124.0
678.6	6128.0
678.5	6109.0
678.4	6180.0
678.3	6167.0
678.2	6179.0
678.1	6189.0
678.0	6135.0
677.9	6006.0
677.8	6024.0
677.7	6117.0
677.6	6220.0
677.5	6275.0
677.4	6246.0
677.3	6185.0
677.2	6160.0
677.1	6170.0
677.0	6064.0
676.9	6157.0
676.8	6114.0
676.7	6143.0
676.6	6111.0
676.5	6142.0
676.4	6188.0
676.3	6181.0
676.2	6033.0
676.1	6106.0
676.0	6140.0
675.9	6273.0
675.8	6090.0
675.7	6064.0
675.6	6098.0
675.5	6085.0
675.4	6123.0
675.3	6097.0
675.2	6202.0
675.1	6191.0
675.0	6133.0

File: HT CP 19 Ap location C1 in image_HTCP19ApTi2s_Ti2s.txt
BE/eV	PE: 20.0 eV
579.0	8479.0
578.8	8583.0
578.6	8651.0
578.4	8497.0
578.2	8538.0
578.0	8476.0
577.8	8524.0
577.6	8438.0
577.4	8456.0
577.2	8481.0
577.0	8523.0
576.8	8460.0
576.6	8537.0
576.4	8468.0
576.2	8450.0
576.0	8534.0
575.8	8580.0
575.6	8463.0
575.4	8552.0
575.2	8498.0
575.0	8517.0
574.8	8560.0
574.6	8511.0
574.4	8423.0
574.2	8541.0
574.0	8459.0
573.8	8574.0
573.6	8526.0
573.4	8472.0
573.2	8687.0
573.0	8608.0
572.8	8529.0
572.6	8544.0
572.4	8456.0
572.2	8512.0
572.0	8656.0
571.8	8492.0
571.6	8622.0
571.4	8457.0
571.2	8633.0
571.0	8630.0
570.8	8522.0
570.6	8471.0
570.4	8496.0
570.2	8600.0
570.0	8521.0
569.8	8579.0
569.6	8526.0
569.4	8670.0
569.2	8567.0
569.0	8414.0
568.8	8521.0
568.6	8475.0
568.4	8541.0
568.2	8703.0
568.0	8540.0
567.8	8566.0
567.6	8362.0
567.4	8470.0
567.2	8488.0
567.0	8458.0
566.8	8597.0
566.6	8519.0
566.4	8551.0
566.2	8638.0
566.0	8477.0
565.8	8554.0
565.6	8563.0
565.4	8651.0
565.2	8563.0
565.0	8408.0
564.8	8484.0
564.6	8568.0
564.4	8651.0
564.2	8447.0
564.0	8700.0
563.8	8547.0
563.6	8651.0
563.4	8651.0
563.2	8526.0
563.0	8565.0
562.8	8478.0
562.6	8564.0
562.4	8703.0
562.2	8464.0
562.0	8546.0
561.8	8614.0
561.6	8612.0
561.4	8561.0
561.2	8818.0
561.0	8741.0
560.8	8591.0
560.6	8690.0
560.4	8692.0
560.2	8636.0
560.0	8587.0
559.8	8784.0
559.6	8580.0
559.4	8685.0
559.2	8755.0
559.0	8607.0
558.8	8654.0
558.6	8614.0
558.4	8597.0
558.2	8719.0
558.0	8682.0
557.8	8491.0
557.6	8697.0
557.4	8611.0
557.2	8650.0
557.0	8684.0
556.8	8555.0
556.6	8568.0
556.4	8688.0
556.2	8564.0
556.0	8696.0
555.8	8617.0
555.6	8544.0
555.4	8706.0
555.2	8815.0
555.0	8583.0
554.8	8706.0
554.6	8616.0
554.4	8528.0
554.2	8603.0
554.0	8671.0
553.8	8539.0
553.6	8638.0
553.4	8598.0
553.2	8556.0
553.0	8745.0
552.8	8579.0
552.6	8529.0
552.4	8500.0
552.2	8747.0
552.0	8592.0
551.8	8520.0
551.6	8601.0
551.4	8694.0
551.2	8602.0
551.0	8665.0
550.8	8650.0
550.6	8565.0
550.4	8600.0
550.2	8521.0
550.0	8435.0
549.8	8560.0
549.6	8520.0
549.4	8539.0
549.2	8661.0
549.0	8593.0

File: HT CP 19 Ap location C1 in image_HTCP19ApTi3p_Ti3p.txt
BE/eV	PE: 20.0 eV
49.0	179.0
48.8	181.0
48.6	198.0
48.4	181.0
48.2	177.0
48.0	185.0
47.8	202.0
47.6	188.0
47.4	189.0
47.2	202.0
47.0	192.0
46.8	187.0
46.6	208.0
46.4	192.0
46.2	191.0
46.0	196.0
45.8	183.0
45.6	188.0
45.4	184.0
45.2	195.0
45.0	189.0
44.8	195.0
44.6	196.0
44.4	193.0
44.2	195.0
44.0	219.0
43.8	204.0
43.6	221.0
43.4	200.0
43.2	182.0
43.0	193.0
42.8	165.0
42.6	194.0
42.4	171.0
42.2	175.0
42.0	169.0
41.8	187.0
41.6	180.0
41.4	171.0
41.2	195.0
41.0	180.0
40.8	198.0
40.6	161.0
40.4	202.0
40.2	173.0
40.0	168.0
39.8	148.0
39.6	186.0
39.4	168.0
39.2	181.0
39.0	180.0
38.8	169.0
38.6	162.0
38.4	175.0
38.2	155.0
38.0	167.0
37.8	152.0
37.6	167.0
37.4	148.0
37.2	152.0
37.0	164.0
36.8	148.0
36.6	135.0
36.4	152.0
36.2	151.0
36.0	151.0
35.8	128.0
35.6	148.0
35.4	162.0
35.2	147.0
35.0	141.0
34.8	157.0
34.6	140.0
34.4	144.0
34.2	137.0
34.0	118.0
33.8	142.0
33.6	131.0
33.4	153.0
33.2	138.0
33.0	129.0
32.8	130.0
32.6	133.0
32.4	136.0
32.2	131.0
32.0	127.0
31.8	144.0
31.6	139.0
31.4	141.0
31.2	131.0
31.0	138.0
30.8	126.0
30.6	139.0
30.4	137.0
30.2	134.0
30.0	139.0
29.8	135.0
29.6	146.0
29.4	117.0
29.2	146.0
29.0	152.0
28.8	122.0
28.6	149.0
28.4	147.0
28.2	154.0
28.0	152.0
27.8	158.0
27.6	139.0
27.4	156.0
27.2	146.0
27.0	156.0
26.8	157.0
26.6	169.0
26.4	179.0
26.2	173.0
26.0	161.0
25.8	171.0
25.6	168.0
25.4	181.0
25.2	191.0
25.0	188.0
24.8	184.0
24.6	177.0
24.4	199.0
24.2	186.0
24.0	199.0
23.8	202.0
23.6	191.0
23.4	190.0
23.2	187.0
23.0	186.0
22.8	222.0
22.6	213.0
22.4	210.0
22.2	205.0
22.0	223.0
21.8	219.0
21.6	264.0
21.4	253.0
21.2	286.0
21.0	288.0
20.8	270.0
20.6	301.0
20.4	316.0
20.2	296.0
20.0	309.0
19.8	301.0
19.6	308.0
19.4	327.0
19.2	330.0
19.0	331.0

File: HT CP 19 Ap location C1 in image_HTCP19Apwide_wide.txt
BE/eV	PE: 160.0 eV
1200.0	22946.0
1195.0	23059.0
1190.0	23163.0
1185.0	23146.0
1180.0	23014.0
1175.0	23459.0
1170.0	23669.0
1165.0	23638.0
1160.0	23732.0
1155.0	24007.0
1150.0	23898.0
1145.0	24064.0
1140.0	24161.0
1135.0	24351.0
1130.0	24642.0
1125.0	24408.0
1120.0	25048.0
1115.0	24838.0
1110.0	25425.0
1105.0	25589.0
1100.0	25432.0
1095.0	25703.0
1090.0	25700.0
1085.0	25896.0
1080.0	26299.0
1075.0	26191.0
1070.0	26625.0
1065.0	27048.0
1060.0	26817.0
1055.0	27042.0
1050.0	27330.0
1045.0	27273.0
1040.0	27632.0
1035.0	27805.0
1030.0	28299.0
1025.0	28216.0
1020.0	28801.0
1015.0	28796.0
1010.0	29299.0
1005.0	29626.0
1000.0	30759.0
995.0	30632.0
990.0	30421.0
985.0	30712.0
980.0	31995.0
975.0	33755.0
970.0	32417.0
965.0	29937.0
960.0	28712.0
955.0	28625.0
950.0	28843.0
945.0	28711.0
940.0	29046.0
935.0	29168.0
930.0	29107.0
925.0	29141.0
920.0	29126.0
915.0	29384.0
910.0	29779.0
905.0	29900.0
900.0	29947.0
895.0	29898.0
890.0	30198.0
885.0	30283.0
880.0	30289.0
875.0	30195.0
870.0	30744.0
865.0	30810.0
860.0	30842.0
855.0	30776.0
850.0	31069.0
845.0	31222.0
840.0	31332.0
835.0	31577.0
830.0	31398.0
825.0	31476.0
820.0	31794.0
815.0	32033.0
810.0	31874.0
805.0	32101.0
800.0	31941.0
795.0	32100.0
790.0	32238.0
785.0	32393.0
780.0	32489.0
775.0	32548.0
770.0	32647.0
765.0	32960.0
760.0	33013.0
755.0	33333.0
750.0	32775.0
745.0	33064.0
740.0	33262.0
735.0	33290.0
730.0	33537.0
725.0	33928.0
720.0	34301.0
715.0	34210.0
710.0	33982.0
705.0	33995.0
700.0	34106.0
695.0	34408.0
690.0	34380.0
685.0	34567.0
680.0	35055.0
675.0	34707.0
670.0	34549.0
665.0	34757.0
660.0	35372.0
655.0	35434.0
650.0	35411.0
645.0	35458.0
640.0	35424.0
635.0	35687.0
630.0	35646.0
625.0	35721.0
620.0	36134.0
615.0	35912.0
610.0	36393.0
605.0	36302.0
600.0	36426.0
595.0	36818.0
590.0	36532.0
585.0	36878.0
580.0	36888.0
575.0	37038.0
570.0	37143.0
565.0	37331.0
560.0	38019.0
555.0	37914.0
550.0	37746.0
545.0	37756.0
540.0	38035.0
535.0	40479.0
530.0	44142.0
525.0	37046.0
520.0	37104.0
515.0	37091.0
510.0	37254.0
505.0	37581.0
500.0	37569.0
495.0	37451.0
490.0	37813.0
485.0	37877.0
480.0	37547.0
475.0	38151.0
470.0	38226.0
465.0	38320.0
460.0	38332.0
455.0	38519.0
450.0	38539.0
445.0	38715.0
440.0	39002.0
435.0	39169.0
430.0	39444.0
425.0	39533.0
420.0	39407.0
415.0	39888.0
410.0	40152.0
405.0	40188.0
400.0	40590.0
395.0	40416.0
390.0	40853.0
385.0	40744.0
380.0	41205.0
375.0	41549.0
370.0	41634.0
365.0	41486.0
360.0	41968.0
355.0	42137.0
350.0	43419.0
345.0	43700.0
340.0	43520.0
335.0	41529.0
330.0	40200.0
325.0	42913.0
320.0	47364.0
315.0	49466.0
310.0	46375.0
305.0	34460.0
300.0	24212.0
295.0	25370.0
290.0	44887.0
285.0	137235.0
280.0	4958.0
275.0	1700.0
270.0	1524.0
265.0	1408.0
260.0	1391.0
255.0	1404.0
250.0	1387.0
245.0	1396.0
240.0	1419.0
235.0	1403.0
230.0	1423.0
225.0	1379.0
220.0	1404.0
215.0	1419.0
210.0	1400.0
205.0	1431.0
200.0	1445.0
195.0	1392.0
190.0	1410.0
185.0	1454.0
180.0	1459.0
175.0	1503.0
170.0	1515.0
165.0	1473.0
160.0	1403.0
155.0	1704.0
150.0	1582.0
145.0	1484.0
140.0	1505.0
135.0	1490.0
130.0	1546.0
125.0	1511.0
120.0	1476.0
115.0	1498.0
110.0	1466.0
105.0	1534.0
100.0	1657.0
95.0	1483.0
90.0	1512.0
85.0	1447.0
80.0	1535.0
75.0	1598.0
70.0	1530.0
65.0	1469.0
60.0	1474.0
55.0	1579.0
50.0	1764.0
45.0	1864.0
40.0	1693.0
35.0	1410.0
30.0	1343.0
25.0	1711.0
20.0	2777.0
15.0	2645.0
10.0	1516.0
5.0	558.0
0.0	39.0
-5.0	1.0

File: MX-HT 0p1 20Ap location X1 in image_MXHT0p120ApC1s_C1s.txt
BE/eV	PE: 20.0 eV
295.0	867.0
294.9	804.0
294.8	804.0
294.7	836.0
294.6	812.0
294.5	827.0
294.4	824.0
294.3	822.0
294.2	889.0
294.1	906.0
294.0	841.0
293.9	862.0
293.8	897.0
293.7	888.0
293.6	878.0
293.5	923.0
293.4	929.0
293.3	915.0
293.2	873.0
293.1	913.0
293.0	931.0
292.9	940.0
292.8	934.0
292.7	981.0
292.6	944.0
292.5	957.0
292.4	998.0
292.3	990.0
292.2	1049.0
292.1	1034.0
292.0	1068.0
291.9	1073.0
291.8	1098.0
291.7	1079.0
291.6	1109.0
291.5	1131.0
291.4	1169.0
291.3	1190.0
291.2	1194.0
291.1	1178.0
291.0	1249.0
290.9	1287.0
290.8	1276.0
290.7	1268.0
290.6	1291.0
290.5	1264.0
290.4	1272.0
290.3	1303.0
290.2	1298.0
290.1	1241.0
290.0	1262.0
289.9	1237.0
289.8	1294.0
289.7	1270.0
289.6	1223.0
289.5	1210.0
289.4	1272.0
289.3	1215.0
289.2	1196.0
289.1	1207.0
289.0	1162.0
288.9	1191.0
288.8	1195.0
288.7	1190.0
288.6	1150.0
288.5	1184.0
288.4	1211.0
288.3	1174.0
288.2	1193.0
288.1	1201.0
288.0	1201.0
287.9	1241.0
287.8	1207.0
287.7	1249.0
287.6	1259.0
287.5	1219.0
287.4	1229.0
287.3	1252.0
287.2	1278.0
287.1	1301.0
287.0	1292.0
286.9	1326.0
286.8	1451.0
286.7	1439.0
286.6	1465.0
286.5	1543.0
286.4	1554.0
286.3	1629.0
286.2	1686.0
286.1	1793.0
286.0	1787.0
285.9	1810.0
285.8	1868.0
285.7	2045.0
285.6	2169.0
285.5	2214.0
285.4	2261.0
285.3	2320.0
285.2	2517.0
285.1	2591.0
285.0	2791.0
284.9	2903.0
284.8	3155.0
284.7	3444.0
284.6	3838.0
284.5	4391.0
284.4	5409.0
284.3	6891.0
284.2	9289.0
284.1	12296.0
284.0	16014.0
283.9	19520.0
283.8	20348.0
283.7	17837.0
283.6	12697.0
283.5	8139.0
283.4	4609.0
283.3	2825.0
283.2	1966.0
283.1	1443.0
283.0	1067.0
282.9	868.0
282.8	740.0
282.7	639.0
282.6	531.0
282.5	493.0
282.4	466.0
282.3	418.0
282.2	423.0
282.1	420.0
282.0	433.0
281.9	452.0
281.8	553.0
281.7	660.0
281.6	814.0
281.5	994.0
281.4	1158.0
281.3	1169.0
281.2	1026.0
281.1	835.0
281.0	552.0
280.9	414.0
280.8	299.0
280.7	247.0
280.6	186.0
280.5	186.0
280.4	183.0
280.3	171.0
280.2	176.0
280.1	175.0
280.0	168.0
279.9	180.0
279.8	188.0
279.7	159.0
279.6	153.0
279.5	155.0
279.4	172.0
279.3	152.0
279.2	146.0
279.1	149.0
279.0	170.0
278.9	167.0
278.8	147.0
278.7	139.0
278.6	139.0
278.5	162.0
278.4	168.0
278.3	159.0
278.2	148.0
278.1	148.0
278.0	151.0
277.9	163.0
277.8	158.0
277.7	139.0
277.6	138.0
277.5	145.0
277.4	157.0
277.3	162.0
277.2	163.0
277.1	141.0
277.0	147.0