Folder: python_code_MXene_VRFB/XPS/Casa format (part 6)

File: UT 18 Ap location T1 in image_UT18ApCl2s_Cl2s.txt
BE/eV	PE: 20.0 eV
285.0	1934.0
284.8	2345.0
284.6	3097.0
284.4	4856.0
284.2	8921.0
284.0	14281.0
283.8	12881.0
283.6	5575.0
283.4	1765.0
283.2	820.0
283.0	437.0
282.8	262.0
282.6	178.0
282.4	162.0
282.2	126.0
282.0	106.0
281.8	85.0
281.6	84.0
281.4	74.0
281.2	65.0
281.0	69.0
280.8	60.0
280.6	40.0
280.4	56.0
280.2	43.0
280.0	45.0
279.8	40.0
279.6	37.0
279.4	30.0
279.2	34.0
279.0	35.0
278.8	29.0
278.6	32.0
278.4	27.0
278.2	27.0
278.0	28.0
277.8	41.0
277.6	24.0
277.4	37.0
277.2	27.0
277.0	26.0
276.8	32.0
276.6	23.0
276.4	35.0
276.2	38.0
276.0	26.0
275.8	19.0
275.6	34.0
275.4	28.0
275.2	30.0
275.0	32.0
274.8	32.0
274.6	32.0
274.4	33.0
274.2	28.0
274.0	31.0
273.8	25.0
273.6	24.0
273.4	28.0
273.2	23.0
273.0	28.0
272.8	36.0
272.6	32.0
272.4	31.0
272.2	28.0
272.0	32.0
271.8	33.0
271.6	30.0
271.4	34.0
271.2	33.0
271.0	20.0
270.8	35.0
270.6	30.0
270.4	27.0
270.2	32.0
270.0	28.0
269.8	27.0
269.6	23.0
269.4	33.0
269.2	25.0
269.0	26.0
268.8	33.0
268.6	34.0
268.4	29.0
268.2	33.0
268.0	33.0
267.8	24.0
267.6	28.0
267.4	25.0
267.2	29.0
267.0	24.0
266.8	35.0
266.6	27.0
266.4	32.0
266.2	25.0
266.0	27.0
265.8	26.0
265.6	31.0
265.4	22.0
265.2	32.0
265.0	32.0
264.8	30.0
264.6	30.0
264.4	22.0
264.2	26.0
264.0	24.0
263.8	37.0
263.6	30.0
263.4	24.0
263.2	38.0
263.0	24.0
262.8	24.0
262.6	24.0
262.4	33.0
262.2	27.0
262.0	31.0
261.8	23.0
261.6	40.0
261.4	25.0
261.2	26.0
261.0	28.0
260.8	23.0
260.6	31.0
260.4	35.0
260.2	23.0
260.0	22.0
259.8	32.0
259.6	40.0
259.4	31.0
259.2	30.0
259.0	25.0
258.8	23.0
258.6	26.0
258.4	28.0
258.2	41.0
258.0	31.0
257.8	35.0
257.6	32.0
257.4	37.0
257.2	20.0
257.0	26.0
256.8	25.0
256.6	28.0
256.4	30.0
256.2	22.0
256.0	26.0
255.8	32.0
255.6	28.0
255.4	26.0
255.2	33.0
255.0	24.0

File: UT 18 Ap location T1 in image_UT18ApO1s_O1s.txt
BE/eV	PE: 20.0 eV
540.0	7866.0
539.9	7990.0
539.8	8033.0
539.7	8043.0
539.6	8037.0
539.5	8102.0
539.4	7958.0
539.3	8052.0
539.2	7982.0
539.1	8066.0
539.0	8056.0
538.9	8042.0
538.8	7910.0
538.7	8026.0
538.6	7940.0
538.5	8118.0
538.4	8021.0
538.3	8000.0
538.2	7835.0
538.1	8092.0
538.0	8061.0
537.9	8036.0
537.8	7957.0
537.7	8093.0
537.6	8099.0
537.5	7938.0
537.4	7976.0
537.3	8060.0
537.2	8048.0
537.1	8148.0
537.0	7977.0
536.9	7949.0
536.8	7945.0
536.7	7930.0
536.6	8015.0
536.5	8218.0
536.4	8033.0
536.3	8115.0
536.2	8034.0
536.1	7961.0
536.0	7961.0
535.9	8026.0
535.8	8006.0
535.7	8139.0
535.6	8110.0
535.5	8129.0
535.4	8128.0
535.3	8106.0
535.2	8308.0
535.1	8230.0
535.0	8245.0
534.9	8225.0
534.8	8186.0
534.7	8271.0
534.6	8202.0
534.5	8367.0
534.4	8397.0
534.3	8313.0
534.2	8483.0
534.1	8522.0
534.0	8699.0
533.9	8858.0
533.8	9084.0
533.7	9327.0
533.6	9296.0
533.5	9703.0
533.4	9786.0
533.3	10145.0
533.2	10565.0
533.1	10783.0
533.0	11039.0
532.9	11416.0
532.8	11764.0
532.7	12061.0
532.6	12379.0
532.5	12508.0
532.4	12490.0
532.3	12735.0
532.2	12807.0
532.1	12822.0
532.0	12624.0
531.9	12544.0
531.8	12428.0
531.7	12182.0
531.6	11909.0
531.5	11663.0
531.4	11479.0
531.3	11242.0
531.2	10875.0
531.1	10403.0
531.0	10279.0
530.9	9998.0
530.8	9588.0
530.7	9348.0
530.6	9219.0
530.5	8928.0
530.4	8717.0
530.3	8471.0
530.2	8533.0
530.1	8425.0
530.0	8363.0
529.9	8284.0
529.8	8203.0
529.7	8041.0
529.6	7997.0
529.5	8171.0
529.4	7961.0
529.3	7992.0
529.2	8002.0
529.1	8047.0
529.0	7930.0
528.9	7964.0
528.8	7886.0
528.7	7992.0
528.6	7991.0
528.5	7972.0
528.4	7961.0
528.3	7876.0
528.2	7809.0
528.1	7868.0
528.0	7964.0
527.9	7917.0
527.8	7834.0
527.7	7890.0
527.6	7921.0
527.5	7970.0
527.4	8051.0
527.3	8051.0
527.2	7970.0
527.1	7896.0
527.0	7855.0
526.9	8041.0
526.8	7969.0
526.7	7824.0
526.6	7820.0
526.5	7902.0
526.4	7922.0
526.3	8022.0
526.2	7966.0
526.1	7860.0
526.0	7892.0
525.9	7943.0
525.8	7904.0
525.7	7833.0
525.6	7725.0
525.5	7722.0
525.4	7907.0
525.3	7891.0
525.2	7872.0
525.1	7833.0
525.0	7838.0

File: UT 18 Ap location T1 in image_UT18ApTi2p_Ti2p.txt
BE/eV	PE: 20.0 eV
470.0	11791.0
469.9	12018.0
469.8	11910.0
469.7	11850.0
469.6	11886.0
469.5	11876.0
469.4	12053.0
469.3	12022.0
469.2	12017.0
469.1	11973.0
469.0	12027.0
468.9	12011.0
468.8	12038.0
468.7	12038.0
468.6	12074.0
468.5	11960.0
468.4	12110.0
468.3	12093.0
468.2	12002.0
468.1	12165.0
468.0	12114.0
467.9	11860.0
467.8	11982.0
467.7	12026.0
467.6	11952.0
467.5	11881.0
467.4	11969.0
467.3	11968.0
467.2	12039.0
467.1	12135.0
467.0	11912.0
466.9	12027.0
466.8	12091.0
466.7	12182.0
466.6	12027.0
466.5	11920.0
466.4	12072.0
466.3	11902.0
466.2	12160.0
466.1	12157.0
466.0	11995.0
465.9	12015.0
465.8	12048.0
465.7	12074.0
465.6	12207.0
465.5	11914.0
465.4	12040.0
465.3	12039.0
465.2	11994.0
465.1	12095.0
465.0	12145.0
464.9	12221.0
464.8	12106.0
464.7	11908.0
464.6	11989.0
464.5	12084.0
464.4	12049.0
464.3	11904.0
464.2	12126.0
464.1	11979.0
464.0	12092.0
463.9	12019.0
463.8	12174.0
463.7	12080.0
463.6	11942.0
463.5	12075.0
463.4	11964.0
463.3	12008.0
463.2	12174.0
463.1	12012.0
463.0	12107.0
462.9	12015.0
462.8	11982.0
462.7	11939.0
462.6	11887.0
462.5	11956.0
462.4	12035.0
462.3	12168.0
462.2	11994.0
462.1	12051.0
462.0	12030.0
461.9	12047.0
461.8	12036.0
461.7	11974.0
461.6	11943.0
461.5	11997.0
461.4	11950.0
461.3	11945.0
461.2	12021.0
461.1	12134.0
461.0	12107.0
460.9	12029.0
460.8	12214.0
460.7	12093.0
460.6	11941.0
460.5	11958.0
460.4	12035.0
460.3	11989.0
460.2	12059.0
460.1	12004.0
460.0	12042.0
459.9	11909.0
459.8	11967.0
459.7	12090.0
459.6	12124.0
459.5	12053.0
459.4	12014.0
459.3	11993.0
459.2	12145.0
459.1	12214.0
459.0	12113.0
458.9	12013.0
458.8	12066.0
458.7	12029.0
458.6	11992.0
458.5	12092.0
458.4	11962.0
458.3	11979.0
458.2	11900.0
458.1	12136.0
458.0	12072.0
457.9	12012.0
457.8	12113.0
457.7	12147.0
457.6	12117.0
457.5	11997.0
457.4	11966.0
457.3	12123.0
457.2	12100.0
457.1	11992.0
457.0	12230.0
456.9	12119.0
456.8	12159.0
456.7	12174.0
456.6	12194.0
456.5	12193.0
456.4	12142.0
456.3	12094.0
456.2	12046.0
456.1	12108.0
456.0	12082.0
455.9	12131.0
455.8	12269.0
455.7	12149.0
455.6	12033.0
455.5	11902.0
455.4	11860.0
455.3	12045.0
455.2	11950.0
455.1	12128.0
455.0	12042.0
454.9	12065.0
454.8	12024.0
454.7	11918.0
454.6	11965.0
454.5	12150.0
454.4	12121.0
454.3	11908.0
454.2	11934.0
454.1	11942.0
454.0	12025.0
453.9	12161.0
453.8	12130.0
453.7	12107.0
453.6	12213.0
453.5	12166.0
453.4	12097.0
453.3	12052.0
453.2	12109.0
453.1	12104.0
453.0	12139.0
452.9	12033.0
452.8	12171.0
452.7	12093.0
452.6	12069.0
452.5	11976.0
452.4	12127.0
452.3	12165.0
452.2	12235.0
452.1	12107.0
452.0	12235.0
451.9	12015.0
451.8	12098.0
451.7	11891.0
451.6	11996.0
451.5	12122.0
451.4	12047.0
451.3	12038.0
451.2	12019.0
451.1	12083.0
451.0	12154.0
450.9	12026.0
450.8	12045.0
450.7	12030.0
450.6	12010.0
450.5	12016.0
450.4	12137.0
450.3	12165.0
450.2	12109.0
450.1	12144.0
450.0	12170.0

File: UT 18 Ap location T1 in image_UT18ApTi3p_Ti3p.txt
BE/eV	PE: 20.0 eV
49.0	171.0
48.8	173.0
48.6	148.0
48.4	161.0
48.2	166.0
48.0	166.0
47.8	177.0
47.6	156.0
47.4	170.0
47.2	177.0
47.0	173.0
46.8	169.0
46.6	174.0
46.4	163.0
46.2	170.0
46.0	173.0
45.8	172.0
45.6	178.0
45.4	163.0
45.2	165.0
45.0	171.0
44.8	170.0
44.6	175.0
44.4	174.0
44.2	185.0
44.0	154.0
43.8	164.0
43.6	180.0
43.4	181.0
43.2	156.0
43.0	156.0
42.8	163.0
42.6	156.0
42.4	167.0
42.2	170.0
42.0	162.0
41.8	168.0
41.6	154.0
41.4	165.0
41.2	175.0
41.0	149.0
40.8	137.0
40.6	134.0
40.4	162.0
40.2	157.0
40.0	159.0
39.8	153.0
39.6	166.0
39.4	160.0
39.2	139.0
39.0	157.0
38.8	152.0
38.6	167.0
38.4	155.0
38.2	127.0
38.0	142.0
37.8	148.0
37.6	146.0
37.4	155.0
37.2	132.0
37.0	131.0
36.8	148.0
36.6	138.0
36.4	127.0
36.2	145.0
36.0	151.0
35.8	141.0
35.6	143.0
35.4	133.0
35.2	146.0
35.0	145.0
34.8	138.0
34.6	122.0
34.4	130.0
34.2	125.0
34.0	132.0
33.8	120.0
33.6	127.0
33.4	116.0
33.2	131.0
33.0	134.0
32.8	110.0
32.6	131.0
32.4	123.0
32.2	143.0
32.0	121.0
31.8	110.0
31.6	114.0
31.4	114.0
31.2	111.0
31.0	101.0
30.8	114.0
30.6	111.0
30.4	134.0
30.2	116.0
30.0	117.0
29.8	111.0
29.6	125.0
29.4	112.0
29.2	144.0
29.0	132.0
28.8	128.0
28.6	145.0
28.4	131.0
28.2	120.0
28.0	131.0
27.8	131.0
27.6	140.0
27.4	147.0
27.2	134.0
27.0	136.0
26.8	140.0
26.6	147.0
26.4	132.0
26.2	124.0
26.0	159.0
25.8	160.0
25.6	143.0
25.4	149.0
25.2	165.0
25.0	144.0
24.8	166.0
24.6	148.0
24.4	178.0
24.2	142.0
24.0	157.0
23.8	159.0
23.6	165.0
23.4	158.0
23.2	148.0
23.0	156.0
22.8	173.0
22.6	176.0
22.4	173.0
22.2	156.0
22.0	184.0
21.8	199.0
21.6	211.0
21.4	205.0
21.2	243.0
21.0	239.0
20.8	214.0
20.6	246.0
20.4	270.0
20.2	299.0
20.0	240.0
19.8	277.0
19.6	247.0
19.4	279.0
19.2	265.0
19.0	286.0

File: UT 18 Ap location T1 in image_UT18Apwide_wide.txt
BE/eV	PE: 160.0 eV
1200.0	21098.0
1195.0	20891.0
1190.0	21226.0
1185.0	21026.0
1180.0	21153.0
1175.0	21537.0
1170.0	22012.0
1165.0	21713.0
1160.0	21900.0
1155.0	21889.0
1150.0	22078.0
1145.0	22367.0
1140.0	22345.0
1135.0	22267.0
1130.0	22506.0
1125.0	22729.0
1120.0	22839.0
1115.0	22937.0
1110.0	23275.0
1105.0	23606.0
1100.0	23589.0
1095.0	23496.0
1090.0	23867.0
1085.0	23968.0
1080.0	24006.0
1075.0	24249.0
1070.0	24844.0
1065.0	24542.0
1060.0	24990.0
1055.0	24810.0
1050.0	25175.0
1045.0	25309.0
1040.0	25747.0
1035.0	25650.0
1030.0	26231.0
1025.0	26549.0
1020.0	27161.0
1015.0	27247.0
1010.0	27313.0
1005.0	28149.0
1000.0	28928.0
995.0	28687.0
990.0	28414.0
985.0	28497.0
980.0	29973.0
975.0	31400.0
970.0	29615.0
965.0	27071.0
960.0	26721.0
955.0	26614.0
950.0	26542.0
945.0	26831.0
940.0	26910.0
935.0	27011.0
930.0	27058.0
925.0	27302.0
920.0	27705.0
915.0	27570.0
910.0	27549.0
905.0	27711.0
900.0	27870.0
895.0	27723.0
890.0	28002.0
885.0	28739.0
880.0	28198.0
875.0	28573.0
870.0	28706.0
865.0	28892.0
860.0	28951.0
855.0	29135.0
850.0	29312.0
845.0	29256.0
840.0	29206.0
835.0	29170.0
830.0	29583.0
825.0	29556.0
820.0	29680.0
815.0	29758.0
810.0	30215.0
805.0	30280.0
800.0	29964.0
795.0	30143.0
790.0	30377.0
785.0	30186.0
780.0	30359.0
775.0	30540.0
770.0	30562.0
765.0	30736.0
760.0	30933.0
755.0	31122.0
750.0	30856.0
745.0	31533.0
740.0	31614.0
735.0	31428.0
730.0	31466.0
725.0	31533.0
720.0	31653.0
715.0	31844.0
710.0	31901.0
705.0	31957.0
700.0	32159.0
695.0	31897.0
690.0	32298.0
685.0	32345.0
680.0	32313.0
675.0	32585.0
670.0	32461.0
665.0	32596.0
660.0	32822.0
655.0	32881.0
650.0	32758.0
645.0	33187.0
640.0	33278.0
635.0	33247.0
630.0	33354.0
625.0	33555.0
620.0	33570.0
615.0	33834.0
610.0	33803.0
605.0	33651.0
600.0	34229.0
595.0	34352.0
590.0	34593.0
585.0	34450.0
580.0	34644.0
575.0	34803.0
570.0	35038.0
565.0	35269.0
560.0	35753.0
555.0	35868.0
550.0	35913.0
545.0	35595.0
540.0	35589.0
535.0	37292.0
530.0	40714.0
525.0	35131.0
520.0	34570.0
515.0	34951.0
510.0	34821.0
505.0	35106.0
500.0	35299.0
495.0	35381.0
490.0	35584.0
485.0	35506.0
480.0	35626.0
475.0	35515.0
470.0	36040.0
465.0	36067.0
460.0	35999.0
455.0	36150.0
450.0	36453.0
445.0	36564.0
440.0	36726.0
435.0	36942.0
430.0	36896.0
425.0	37239.0
420.0	37313.0
415.0	37173.0
410.0	37464.0
405.0	37642.0
400.0	38315.0
395.0	38072.0
390.0	38230.0
385.0	38269.0
380.0	38610.0
375.0	38972.0
370.0	38954.0
365.0	38791.0
360.0	39073.0
355.0	39359.0
350.0	39993.0
345.0	40755.0
340.0	40255.0
335.0	38732.0
330.0	37489.0
325.0	39081.0
320.0	42430.0
315.0	44596.0
310.0	42852.0
305.0	32971.0
300.0	23638.0
295.0	22300.0
290.0	36240.0
285.0	123889.0
280.0	4633.0
275.0	1499.0
270.0	1376.0
265.0	1334.0
260.0	1282.0
255.0	1241.0
250.0	1293.0
245.0	1247.0
240.0	1311.0
235.0	1291.0
230.0	1279.0
225.0	1335.0
220.0	1293.0
215.0	1309.0
210.0	1300.0
205.0	1271.0
200.0	1349.0
195.0	1297.0
190.0	1328.0
185.0	1290.0
180.0	1295.0
175.0	1281.0
170.0	1326.0
165.0	1299.0
160.0	1319.0
155.0	1360.0
150.0	1374.0
145.0	1273.0
140.0	1344.0
135.0	1329.0
130.0	1326.0
125.0	1353.0
120.0	1379.0
115.0	1320.0
110.0	1331.0
105.0	1369.0
100.0	1432.0
95.0	1347.0
90.0	1375.0
85.0	1384.0
80.0	1380.0
75.0	1465.0
70.0	1416.0
65.0	1417.0
60.0	1383.0
55.0	1489.0
50.0	1595.0
45.0	1614.0
40.0	1561.0
35.0	1246.0
30.0	1180.0
25.0	1563.0
20.0	2389.0
15.0	2297.0
10.0	1312.0
5.0	512.0
0.0	40.0
-5.0	3.0