Folder: python_code_MXene_VRFB/XPS/Casa format (part 3)

File: MX-HT 0p5 20Ap location H1 in image_MXHT0p520ApCl2s_Cl2s.txt
BE/eV	PE: 20.0 eV
285.0	1223.0
284.8	1408.0
284.6	1803.0
284.4	2596.0
284.2	4400.0
284.0	7111.0
283.8	6311.0
283.6	2929.0
283.4	1271.0
283.2	708.0
283.0	518.0
282.8	428.0
282.6	380.0
282.4	376.0
282.2	390.0
282.0	447.0
281.8	602.0
281.6	1059.0
281.4	1470.0
281.2	1121.0
281.0	504.0
280.8	262.0
280.6	184.0
280.4	170.0
280.2	158.0
280.0	152.0
279.8	166.0
279.6	161.0
279.4	148.0
279.2	145.0
279.0	147.0
278.8	158.0
278.6	142.0
278.4	137.0
278.2	155.0
278.0	154.0
277.8	152.0
277.6	143.0
277.4	147.0
277.2	148.0
277.0	131.0
276.8	133.0
276.6	137.0
276.4	157.0
276.2	129.0
276.0	134.0
275.8	133.0
275.6	140.0
275.4	145.0
275.2	167.0
275.0	151.0
274.8	150.0
274.6	157.0
274.4	157.0
274.2	141.0
274.0	134.0
273.8	146.0
273.6	127.0
273.4	148.0
273.2	145.0
273.0	152.0
272.8	156.0
272.6	147.0
272.4	152.0
272.2	164.0
272.0	150.0
271.8	160.0
271.6	146.0
271.4	166.0
271.2	177.0
271.0	162.0
270.8	186.0
270.6	173.0
270.4	170.0
270.2	180.0
270.0	191.0
269.8	191.0
269.6	195.0
269.4	190.0
269.2	183.0
269.0	179.0
268.8	182.0
268.6	159.0
268.4	167.0
268.2	167.0
268.0	165.0
267.8	158.0
267.6	155.0
267.4	150.0
267.2	148.0
267.0	150.0
266.8	158.0
266.6	140.0
266.4	149.0
266.2	145.0
266.0	161.0
265.8	133.0
265.6	145.0
265.4	145.0
265.2	149.0
265.0	154.0
264.8	127.0
264.6	135.0
264.4	144.0
264.2	144.0
264.0	123.0
263.8	131.0
263.6	147.0
263.4	139.0
263.2	139.0
263.0	133.0
262.8	131.0
262.6	140.0
262.4	159.0
262.2	136.0
262.0	130.0
261.8	135.0
261.6	133.0
261.4	140.0
261.2	146.0
261.0	125.0
260.8	150.0
260.6	133.0
260.4	145.0
260.2	136.0
260.0	133.0
259.8	163.0
259.6	132.0
259.4	138.0
259.2	146.0
259.0	168.0
258.8	169.0
258.6	145.0
258.4	154.0
258.2	144.0
258.0	142.0
257.8	139.0
257.6	138.0
257.4	151.0
257.2	135.0
257.0	129.0
256.8	146.0
256.6	149.0
256.4	154.0
256.2	112.0
256.0	156.0
255.8	142.0
255.6	137.0
255.4	135.0
255.2	140.0
255.0	136.0

File: MX-HT 0p5 20Ap location H1 in image_MXHT0p520ApF1s_F1s.txt
BE/eV	PE: 20.0 eV
695.0	12792.0
694.9	12734.0
694.8	12816.0
694.7	12752.0
694.6	12822.0
694.5	12802.0
694.4	12702.0
694.3	12762.0
694.2	12784.0
694.1	12694.0
694.0	12911.0
693.9	12849.0
693.8	12721.0
693.7	12887.0
693.6	12875.0
693.5	12905.0
693.4	12839.0
693.3	12958.0
693.2	12923.0
693.1	12754.0
693.0	12932.0
692.9	12909.0
692.8	12852.0
692.7	12839.0
692.6	12637.0
692.5	12768.0
692.4	12705.0
692.3	12850.0
692.2	12891.0
692.1	12924.0
692.0	13084.0
691.9	12862.0
691.8	12997.0
691.7	12872.0
691.6	12825.0
691.5	12780.0
691.4	12847.0
691.3	12903.0
691.2	12711.0
691.1	12688.0
691.0	12730.0
690.9	12694.0
690.8	12864.0
690.7	12932.0
690.6	12854.0
690.5	12769.0
690.4	12866.0
690.3	12972.0
690.2	12983.0
690.1	12950.0
690.0	12773.0
689.9	12946.0
689.8	13063.0
689.7	12920.0
689.6	13015.0
689.5	13172.0
689.4	13033.0
689.3	12863.0
689.2	12891.0
689.1	12912.0
689.0	12802.0
688.9	13092.0
688.8	12966.0
688.7	12938.0
688.6	12965.0
688.5	12950.0
688.4	13034.0
688.3	13162.0
688.2	13233.0
688.1	13127.0
688.0	12968.0
687.9	13115.0
687.8	13182.0
687.7	13108.0
687.6	13288.0
687.5	13157.0
687.4	13326.0
687.3	13345.0
687.2	13512.0
687.1	13506.0
687.0	13559.0
686.9	13709.0
686.8	13581.0
686.7	13751.0
686.6	13760.0
686.5	13723.0
686.4	14083.0
686.3	14416.0
686.2	14387.0
686.1	14555.0
686.0	14808.0
685.9	14906.0
685.8	15012.0
685.7	15273.0
685.6	15647.0
685.5	16078.0
685.4	16703.0
685.3	17239.0
685.2	18187.0
685.1	19313.0
685.0	20931.0
684.9	21664.0
684.8	23217.0
684.7	24502.0
684.6	25371.0
684.5	25594.0
684.4	25412.0
684.3	24313.0
684.2	22896.0
684.1	21549.0
684.0	19781.0
683.9	18202.0
683.8	16913.0
683.7	15848.0
683.6	15037.0
683.5	14485.0
683.4	14025.0
683.3	13651.0
683.2	13409.0
683.1	13288.0
683.0	13053.0
682.9	12935.0
682.8	12913.0
682.7	12860.0
682.6	12804.0
682.5	12766.0
682.4	12734.0
682.3	12772.0
682.2	12627.0
682.1	12542.0
682.0	12446.0
681.9	12643.0
681.8	12443.0
681.7	12564.0
681.6	12647.0
681.5	12572.0
681.4	12559.0
681.3	12692.0
681.2	12688.0
681.1	12632.0
681.0	12549.0
680.9	12614.0
680.8	12435.0
680.7	12505.0
680.6	12547.0
680.5	12699.0
680.4	12692.0
680.3	12646.0
680.2	12521.0
680.1	12580.0
680.0	12690.0
679.9	12510.0
679.8	12583.0
679.7	12477.0
679.6	12454.0
679.5	12563.0
679.4	12550.0
679.3	12549.0
679.2	12530.0
679.1	12671.0
679.0	12586.0
678.9	12479.0
678.8	12588.0
678.7	12516.0
678.6	12511.0
678.5	12443.0
678.4	12354.0
678.3	12565.0
678.2	12482.0
678.1	12645.0
678.0	12601.0
677.9	12474.0
677.8	12462.0
677.7	12461.0
677.6	12681.0
677.5	12500.0
677.4	12721.0
677.3	12665.0
677.2	12500.0
677.1	12624.0
677.0	12585.0
676.9	12592.0
676.8	12471.0
676.7	12318.0
676.6	12625.0
676.5	12618.0
676.4	12532.0
676.3	12611.0
676.2	12577.0
676.1	12576.0
676.0	12482.0
675.9	12398.0
675.8	12447.0
675.7	12511.0
675.6	12619.0
675.5	12499.0
675.4	12472.0
675.3	12636.0
675.2	12724.0
675.1	12593.0
675.0	12656.0

File: MX-HT 0p5 20Ap location H1 in image_MXHT0p520ApO1s_O1s.txt
BE/eV	PE: 20.0 eV
540.0	15875.0
539.9	15759.0
539.8	15787.0
539.7	15623.0
539.6	15560.0
539.5	15487.0
539.4	15532.0
539.3	15542.0
539.2	15492.0
539.1	15503.0
539.0	15670.0
538.9	15409.0
538.8	15344.0
538.7	15476.0
538.6	15356.0
538.5	15372.0
538.4	15396.0
538.3	15574.0
538.2	15423.0
538.1	15352.0
538.0	15363.0
537.9	15384.0
537.8	15523.0
537.7	15415.0
537.6	15480.0
537.5	15269.0
537.4	15343.0
537.3	15381.0
537.2	15431.0
537.1	15574.0
537.0	15416.0
536.9	15434.0
536.8	15341.0
536.7	15565.0
536.6	15473.0
536.5	15476.0
536.4	15382.0
536.3	15271.0
536.2	15333.0
536.1	15351.0
536.0	15371.0
535.9	15555.0
535.8	15533.0
535.7	15311.0
535.6	15254.0
535.5	15403.0
535.4	15489.0
535.3	15410.0
535.2	15449.0
535.1	15638.0
535.0	15667.0
534.9	15534.0
534.8	15620.0
534.7	15424.0
534.6	15634.0
534.5	15876.0
534.4	15746.0
534.3	15777.0
534.2	15754.0
534.1	16077.0
534.0	16111.0
533.9	16120.0
533.8	16416.0
533.7	16567.0
533.6	16615.0
533.5	16754.0
533.4	16955.0
533.3	17295.0
533.2	17485.0
533.1	17656.0
533.0	18035.0
532.9	18455.0
532.8	18706.0
532.7	19040.0
532.6	19414.0
532.5	19553.0
532.4	19655.0
532.3	20173.0
532.2	20373.0
532.1	20395.0
532.0	20876.0
531.9	21022.0
531.8	21302.0
531.7	21307.0
531.6	21616.0
531.5	21758.0
531.4	22082.0
531.3	22220.0
531.2	22387.0
531.1	22496.0
531.0	23024.0
530.9	23155.0
530.8	23505.0
530.7	24337.0
530.6	24816.0
530.5	25481.0
530.4	26326.0
530.3	26908.0
530.2	26749.0
530.1	26651.0
530.0	26662.0
529.9	26457.0
529.8	26310.0
529.7	26528.0
529.6	26798.0
529.5	27301.0
529.4	27818.0
529.3	28105.0
529.2	28218.0
529.1	27425.0
529.0	25657.0
528.9	23432.0
528.8	21080.0
528.7	19075.0
528.6	17566.0
528.5	16611.0
528.4	15998.0
528.3	15438.0
528.2	15074.0
528.1	15022.0
528.0	14833.0
527.9	14882.0
527.8	14805.0
527.7	14768.0
527.6	14694.0
527.5	14679.0
527.4	14733.0
527.3	14623.0
527.2	14604.0
527.1	14488.0
527.0	14686.0
526.9	14541.0
526.8	14656.0
526.7	14553.0
526.6	14657.0
526.5	14540.0
526.4	14421.0
526.3	14571.0
526.2	14715.0
526.1	14456.0
526.0	14299.0
525.9	14569.0
525.8	14624.0
525.7	14258.0
525.6	14393.0
525.5	14439.0
525.4	14529.0
525.3	14567.0
525.2	14533.0
525.1	14519.0
525.0	14542.0

File: MX-HT 0p5 20Ap location H1 in image_MXHT0p520ApTi2p_Ti2p.txt
BE/eV	PE: 20.0 eV
470.0	7199.0
469.9	7291.0
469.8	7155.0
469.7	7248.0
469.6	7187.0
469.5	7162.0
469.4	7196.0
469.3	7132.0
469.2	7149.0
469.1	7146.0
469.0	7046.0
468.9	7039.0
468.8	6973.0
468.7	7050.0
468.6	7044.0
468.5	7045.0
468.4	7056.0
468.3	6979.0
468.2	7028.0
468.1	6994.0
468.0	6940.0
467.9	6920.0
467.8	6950.0
467.7	6833.0
467.6	6937.0
467.5	6910.0
467.4	6854.0
467.3	6895.0
467.2	6890.0
467.1	6890.0
467.0	6934.0
466.9	6918.0
466.8	6929.0
466.7	6953.0
466.6	7043.0
466.5	6996.0
466.4	7073.0
466.3	7020.0
466.2	6978.0
466.1	7090.0
466.0	7070.0
465.9	7084.0
465.8	7087.0
465.7	7168.0
465.6	7368.0
465.5	7286.0
465.4	7198.0
465.3	7380.0
465.2	7498.0
465.1	7620.0
465.0	7630.0
464.9	7592.0
464.8	7639.0
464.7	7571.0
464.6	7691.0
464.5	7793.0
464.4	7800.0
464.3	7896.0
464.2	7881.0
464.1	7840.0
464.0	7846.0
463.9	8036.0
463.8	7981.0
463.7	7937.0
463.6	8006.0
463.5	8013.0
463.4	8202.0
463.3	8033.0
463.2	8180.0
463.1	8345.0
463.0	8481.0
462.9	8603.0
462.8	8570.0
462.7	8738.0
462.6	8895.0
462.5	9047.0
462.4	9089.0
462.3	9119.0
462.2	9403.0
462.1	9534.0
462.0	9672.0
461.9	9885.0
461.8	10130.0
461.7	10153.0
461.6	10180.0
461.5	10502.0
461.4	10433.0
461.3	10531.0
461.2	10749.0
461.1	11076.0
461.0	11038.0
460.9	10891.0
460.8	10846.0
460.7	10619.0
460.6	10743.0
460.5	10471.0
460.4	10215.0
460.3	9886.0
460.2	9496.0
460.1	9216.0
460.0	8916.0
459.9	8706.0
459.8	8555.0
459.7	8551.0
459.6	8500.0
459.5	8640.0
459.4	8681.0
459.3	8870.0
459.2	9168.0
459.1	9448.0
459.0	9733.0
458.9	9891.0
458.8	9910.0
458.7	9982.0
458.6	10063.0
458.5	9900.0
458.4	9466.0
458.3	9112.0
458.2	9053.0
458.1	8733.0
458.0	8393.0
457.9	8274.0
457.8	8215.0
457.7	8066.0
457.6	8173.0
457.5	8304.0
457.4	8384.0
457.3	8573.0
457.2	8842.0
457.1	8984.0
457.0	9260.0
456.9	9655.0
456.8	9879.0
456.7	10208.0
456.6	10603.0
456.5	11010.0
456.4	11447.0
456.3	11719.0
456.2	12050.0
456.1	12470.0
456.0	12678.0
455.9	13115.0
455.8	13541.0
455.7	13753.0
455.6	14115.0
455.5	14423.0
455.4	14543.0
455.3	15078.0
455.2	15381.0
455.1	15435.0
455.0	15559.0
454.9	15499.0
454.8	15217.0
454.7	15149.0
454.6	14754.0
454.5	14455.0
454.4	13801.0
454.3	12877.0
454.2	11183.0
454.1	8969.0
454.0	6979.0
453.9	5409.0
453.8	4538.0
453.7	4077.0
453.6	3629.0
453.5	3429.0
453.4	3386.0
453.3	3255.0
453.2	3237.0
453.1	3142.0
453.0	3011.0
452.9	3076.0
452.8	3039.0
452.7	3028.0
452.6	3016.0
452.5	2913.0
452.4	2932.0
452.3	2938.0
452.2	2911.0
452.1	2909.0
452.0	2859.0
451.9	2879.0
451.8	2796.0
451.7	2837.0
451.6	2899.0
451.5	2903.0
451.4	2770.0
451.3	2867.0
451.2	2824.0
451.1	2771.0
451.0	2787.0
450.9	2882.0
450.8	2807.0
450.7	2777.0
450.6	2716.0
450.5	2741.0
450.4	2842.0
450.3	2761.0
450.2	2815.0
450.1	2808.0
450.0	2796.0

File: MX-HT 0p5 20Ap location H1 in image_MXHT0p520ApTi2s_Ti2s.txt
BE/eV	PE: 20.0 eV
579.0	19632.0
578.8	19571.0
578.6	19413.0
578.4	19454.0
578.2	19481.0
578.0	19435.0
577.8	19618.0
577.6	19532.0
577.4	19641.0
577.2	19559.0
577.0	19462.0
576.8	19557.0
576.6	19584.0
576.4	19495.0
576.2	19565.0
576.0	19461.0
575.8	19462.0
575.6	19377.0
575.4	19460.0
575.2	19531.0
575.0	19438.0
574.8	19508.0
574.6	19391.0
574.4	19462.0
574.2	19245.0
574.0	19518.0
573.8	19294.0
573.6	19347.0
573.4	19196.0
573.2	19221.0
573.0	19245.0
572.8	19338.0
572.6	19143.0
572.4	18948.0
572.2	19120.0
572.0	19027.0
571.8	18960.0
571.6	19029.0
571.4	18976.0
571.2	19075.0
571.0	19029.0
570.8	19136.0
570.6	18904.0
570.4	18938.0
570.2	18891.0
570.0	18958.0
569.8	18809.0
569.6	18967.0
569.4	18978.0
569.2	19239.0
569.0	19201.0
568.8	18916.0
568.6	19215.0
568.4	19364.0
568.2	19198.0
568.0	19256.0
567.8	19347.0
567.6	19562.0
567.4	19629.0
567.2	19830.0
567.0	19961.0
566.8	19975.0
566.6	20015.0
566.4	20099.0
566.2	20444.0
566.0	20314.0
565.8	20336.0
565.6	20712.0
565.4	20968.0
565.2	20912.0
565.0	21119.0
564.8	21310.0
564.6	21444.0
564.4	21538.0
564.2	21804.0
564.0	21577.0
563.8	21840.0
563.6	21994.0
563.4	21998.0
563.2	22268.0
563.0	22506.0
562.8	22675.0
562.6	22498.0
562.4	22696.0
562.2	22613.0
562.0	22455.0
561.8	22616.0
561.6	22689.0
561.4	22722.0
561.2	22346.0
561.0	21911.0
560.8	21761.0
560.6	21751.0
560.4	21447.0
560.2	21078.0
560.0	20748.0
559.8	20297.0
559.6	19763.0
559.4	19751.0
559.2	19561.0
559.0	19335.0
558.8	19075.0
558.6	18950.0
558.4	18523.0
558.2	18365.0
558.0	18237.0
557.8	18037.0
557.6	18142.0
557.4	17911.0
557.2	17751.0
557.0	17538.0
556.8	17459.0
556.6	17486.0
556.4	17283.0
556.2	17450.0
556.0	17338.0
555.8	17183.0
555.6	17148.0
555.4	17052.0
555.2	17114.0
555.0	17237.0
554.8	16999.0
554.6	16852.0
554.4	17091.0
554.2	16873.0
554.0	16731.0
553.8	17005.0
553.6	16966.0
553.4	16666.0
553.2	16655.0
553.0	16776.0
552.8	16801.0
552.6	16795.0
552.4	16521.0
552.2	16610.0
552.0	16614.0
551.8	16547.0
551.6	16640.0
551.4	16556.0
551.2	16675.0
551.0	16599.0
550.8	16390.0
550.6	16298.0
550.4	16485.0
550.2	16386.0
550.0	16271.0
549.8	16306.0
549.6	16370.0
549.4	16349.0
549.2	16146.0
549.0	16447.0

File: MX-HT 0p5 20Ap location H1 in image_MXHT0p520ApTi3p_Ti3p.txt
BE/eV	PE: 20.0 eV
49.0	860.0
48.8	847.0
48.6	831.0
48.4	861.0
48.2	806.0
48.0	836.0
47.8	835.0
47.6	821.0
47.4	831.0
47.2	821.0
47.0	834.0
46.8	836.0
46.6	753.0
46.4	841.0
46.2	797.0
46.0	806.0
45.8	826.0
45.6	780.0
45.4	794.0
45.2	785.0
45.0	766.0
44.8	808.0
44.6	722.0
44.4	759.0
44.2	754.0
44.0	754.0
43.8	747.0
43.6	750.0
43.4	729.0
43.2	753.0
43.0	712.0
42.8	729.0
42.6	714.0
42.4	772.0
42.2	738.0
42.0	765.0
41.8	741.0
41.6	725.0
41.4	808.0
41.2	781.0
41.0	795.0
40.8	753.0
40.6	774.0
40.4	772.0
40.2	791.0
40.0	819.0
39.8	841.0
39.6	903.0
39.4	879.0
39.2	912.0
39.0	930.0
38.8	986.0
38.6	1042.0
38.4	1116.0
38.2	1107.0
38.0	1193.0
37.8	1299.0
37.6	1321.0
37.4	1426.0
37.2	1507.0
37.0	1464.0
36.8	1514.0
36.6	1509.0
36.4	1600.0
36.2	1592.0
36.0	1645.0
35.8	1759.0
35.6	1815.0
35.4	1849.0
35.2	2089.0
35.0	2071.0
34.8	2208.0
34.6	2263.0
34.4	2228.0
34.2	2267.0
34.0	2187.0
33.8	2190.0
33.6	1988.0
33.4	1771.0
33.2	1564.0
33.0	1208.0
32.8	950.0
32.6	772.0
32.4	605.0
32.2	555.0
32.0	491.0
31.8	435.0
31.6	415.0
31.4	409.0
31.2	397.0
31.0	401.0
30.8	407.0
30.6	393.0
30.4	397.0
30.2	423.0
30.0	441.0
29.8	429.0
29.6	463.0
29.4	460.0
29.2	465.0
29.0	497.0
28.8	434.0
28.6	397.0
28.4	405.0
28.2	351.0
28.0	337.0
27.8	302.0
27.6	292.0
27.4	285.0
27.2	270.0
27.0	285.0
26.8	268.0
26.6	264.0
26.4	277.0
26.2	243.0
26.0	240.0
25.8	266.0
25.6	267.0
25.4	285.0
25.2	286.0
25.0	259.0
24.8	288.0
24.6	271.0
24.4	267.0
24.2	264.0
24.0	285.0
23.8	307.0
23.6	294.0
23.4	296.0
23.2	307.0
23.0	350.0
22.8	331.0
22.6	369.0
22.4	378.0
22.2	383.0
22.0	373.0
21.8	401.0
21.6	424.0
21.4	419.0
21.2	442.0
21.0	391.0
20.8	385.0
20.6	379.0
20.4	359.0
20.2	335.0
20.0	337.0
19.8	322.0
19.6	325.0
19.4	297.0
19.2	271.0
19.0	282.0

File: MX-HT 0p5 20Ap location H1 in image_MXHT0p520ApTi3s_Ti3s.txt
BE/eV	PE: 20.0 eV
74.0	940.0
73.8	937.0
73.6	911.0
73.4	930.0
73.2	921.0
73.0	962.0
72.8	928.0
72.6	946.0
72.4	912.0
72.2	966.0
72.0	923.0
71.8	875.0
71.6	926.0
71.4	892.0
71.2	906.0
71.0	927.0
70.8	857.0
70.6	886.0
70.4	894.0
70.2	833.0
70.0	885.0
69.8	890.0
69.6	866.0
69.4	863.0
69.2	865.0
69.0	909.0
68.8	841.0
68.6	882.0
68.4	870.0
68.2	879.0
68.0	869.0
67.8	860.0
67.6	870.0
67.4	839.0
67.2	820.0
67.0	909.0
66.8	928.0
66.6	873.0
66.4	870.0
66.2	900.0
66.0	908.0
65.8	933.0
65.6	934.0
65.4	911.0
65.2	930.0
65.0	941.0
64.8	951.0
64.6	942.0
64.4	999.0
64.2	1025.0
64.0	1046.0
63.8	1032.0
63.6	1076.0
63.4	1076.0
63.2	1084.0
63.0	1186.0
62.8	1156.0
62.6	1171.0
62.4	1219.0
62.2	1311.0
62.0	1310.0
61.8	1320.0
61.6	1343.0
61.4	1340.0
61.2	1400.0
61.0	1439.0
60.8	1456.0
60.6	1525.0
60.4	1520.0
60.2	1621.0
60.0	1623.0
59.8	1619.0
59.6	1650.0
59.4	1652.0
59.2	1617.0
59.0	1639.0
58.8	1557.0
58.6	1535.0
58.4	1439.0
58.2	1323.0
58.0	1288.0
57.8	1191.0
57.6	1147.0
57.4	1128.0
57.2	1055.0
57.0	1006.0
56.8	972.0
56.6	993.0
56.4	905.0
56.2	907.0
56.0	931.0
55.8	919.0
55.6	931.0
55.4	831.0
55.2	835.0
55.0	879.0
54.8	890.0
54.6	868.0
54.4	825.0
54.2	848.0
54.0	828.0
53.8	843.0
53.6	840.0
53.4	823.0
53.2	858.0
53.0	863.0
52.8	800.0
52.6	866.0
52.4	822.0
52.2	800.0
52.0	846.0
51.8	790.0
51.6	860.0
51.4	861.0
51.2	850.0
51.0	882.0
50.8	811.0
50.6	876.0
50.4	832.0
50.2	869.0
50.0	823.0
49.8	862.0
49.6	837.0
49.4	845.0
49.2	827.0
49.0	855.0
48.8	868.0
48.6	840.0
48.4	812.0
48.2	819.0
48.0	792.0
47.8	820.0
47.6	851.0
47.4	825.0
47.2	807.0
47.0	793.0
46.8	804.0
46.6	856.0
46.4	797.0
46.2	816.0
46.0	797.0
45.8	802.0
45.6	747.0
45.4	768.0
45.2	790.0
45.0	747.0
44.8	766.0
44.6	762.0
44.4	757.0
44.2	745.0
44.0	745.0

File: MX-HT 0p5 20Ap location H1 in image_MXHT0p520Apwide_wide.txt
BE/eV	PE: 160.0 eV
1200.0	85947.0
1195.0	86984.0
1190.0	88074.0
1185.0	89168.0
1180.0	90388.0
1175.0	91317.0
1170.0	92579.0
1165.0	94147.0
1160.0	95850.0
1155.0	98272.0
1150.0	98493.0
1145.0	99192.0
1140.0	100322.0
1135.0	104131.0
1130.0	106464.0
1125.0	108282.0
1120.0	106524.0
1115.0	107005.0
1110.0	113614.0
1105.0	126839.0
1100.0	119163.0
1095.0	88061.0
1090.0	78660.0
1085.0	75318.0
1080.0	76405.0
1075.0	80111.0
1070.0	91467.0
1065.0	82495.0
1060.0	67250.0
1055.0	65404.0
1050.0	65281.0
1045.0	66561.0
1040.0	67608.0
1035.0	69068.0
1030.0	66658.0
1025.0	66929.0
1020.0	67223.0
1015.0	67853.0
1010.0	68229.0
1005.0	68818.0
1000.0	69719.0
995.0	71966.0
990.0	71219.0
985.0	69469.0
980.0	71023.0
975.0	80859.0
970.0	73353.0
965.0	64185.0
960.0	62335.0
955.0	62230.0
950.0	62409.0
945.0	62940.0
940.0	62892.0
935.0	63840.0
930.0	63903.0
925.0	64812.0
920.0	65238.0
915.0	65713.0
910.0	65751.0
905.0	66547.0
900.0	67093.0
895.0	67757.0
890.0	68062.0
885.0	68872.0
880.0	69638.0
875.0	70921.0
870.0	70209.0
865.0	70292.0
860.0	71525.0
855.0	75408.0
850.0	71645.0
845.0	72623.0
840.0	71476.0
835.0	74440.0
830.0	81523.0
825.0	71740.0
820.0	68762.0
815.0	69385.0
810.0	68728.0
805.0	68910.0
800.0	69530.0
795.0	69971.0
790.0	70432.0
785.0	70609.0
780.0	71406.0
775.0	71892.0
770.0	72069.0
765.0	73422.0
760.0	73495.0
755.0	74029.0
750.0	74337.0
745.0	74699.0
740.0	75307.0
735.0	76051.0
730.0	76271.0
725.0	76245.0
720.0	76504.0
715.0	77670.0
710.0	79986.0
705.0	78811.0
700.0	77906.0
695.0	77904.0
690.0	79239.0
685.0	113503.0
680.0	76125.0
675.0	76511.0
670.0	77101.0
665.0	77321.0
660.0	78167.0
655.0	78438.0
650.0	79561.0
645.0	79987.0
640.0	80441.0
635.0	81584.0
630.0	81705.0
625.0	82764.0
620.0	82913.0
615.0	84274.0
610.0	85655.0
605.0	85484.0
600.0	86336.0
595.0	87423.0
590.0	88935.0
585.0	91089.0
580.0	92540.0
575.0	93182.0
570.0	91375.0
565.0	101311.0
560.0	99543.0
555.0	81777.0
550.0	77990.0
545.0	78075.0
540.0	76283.0
535.0	77029.0
530.0	116505.0
525.0	70493.0
520.0	70214.0
515.0	71083.0
510.0	71964.0
505.0	72797.0
500.0	71676.0
495.0	71112.0
490.0	73331.0
485.0	78536.0
480.0	82649.0
475.0	83506.0
470.0	81220.0
465.0	85881.0
460.0	109266.0
455.0	140487.0
450.0	29152.0
445.0	27408.0
440.0	27580.0
435.0	27476.0
430.0	27376.0
425.0	27374.0
420.0	27719.0
415.0	27792.0
410.0	27527.0
405.0	27694.0
400.0	28591.0
395.0	27765.0
390.0	27525.0
385.0	27800.0
380.0	27600.0
375.0	27746.0
370.0	27926.0
365.0	27720.0
360.0	27851.0
355.0	28268.0
350.0	28289.0
345.0	28143.0
340.0	28502.0
335.0	28002.0
330.0	27381.0
325.0	27941.0
320.0	29085.0
315.0	29787.0
310.0	29444.0
305.0	25120.0
300.0	20024.0
295.0	20155.0
290.0	27343.0
285.0	66473.0
280.0	17466.0
275.0	7571.0
270.0	9261.0
265.0	7334.0
260.0	7251.0
255.0	7103.0
250.0	7361.0
245.0	7404.0
240.0	7251.0
235.0	7351.0
230.0	7489.0
225.0	7728.0
220.0	7813.0
215.0	7618.0
210.0	7577.0
205.0	7677.0
200.0	10703.0
195.0	7485.0
190.0	7357.0
185.0	7459.0
180.0	7533.0
175.0	7699.0
170.0	7552.0
165.0	7753.0
160.0	7871.0
155.0	8164.0
150.0	8179.0
145.0	8069.0
140.0	8203.0
135.0	8202.0
130.0	8456.0
125.0	8603.0
120.0	8571.0
115.0	8832.0
110.0	9030.0
105.0	9144.0
100.0	9227.0
95.0	9255.0
90.0	9480.0
85.0	10069.0
80.0	10058.0
75.0	9913.0
70.0	9289.0
65.0	10096.0
60.0	15768.0
55.0	9209.0
50.0	8765.0
45.0	8120.0
40.0	9088.0
35.0	19767.0
30.0	4638.0
25.0	2891.0
20.0	3428.0
15.0	2157.0
10.0	2381.0
5.0	2680.0
0.0	330.0
-5.0	7.0

File: MX-UT 0p1 20Ap location M1 in image_MXUT0p120ApC1s_C1s.txt
BE/eV	PE: 20.0 eV
295.0	777.0
294.9	766.0
294.8	732.0
294.7	739.0
294.6	810.0
294.5	765.0
294.4	731.0
294.3	818.0
294.2	826.0
294.1	781.0
294.0	771.0
293.9	760.0
293.8	748.0
293.7	774.0
293.6	747.0
293.5	776.0
293.4	789.0
293.3	823.0
293.2	834.0
293.1	804.0
293.0	809.0
292.9	840.0
292.8	782.0
292.7	826.0
292.6	867.0
292.5	888.0
292.4	898.0
292.3	867.0
292.2	884.0
292.1	922.0
292.0	919.0
291.9	963.0
291.8	991.0
291.7	966.0
291.6	1002.0
291.5	1024.0
291.4	1010.0
291.3	1013.0
291.2	1038.0
291.1	1059.0
291.0	1073.0
290.9	1094.0
290.8	1070.0
290.7	1129.0
290.6	1078.0
290.5	1054.0
290.4	1051.0
290.3	1025.0
290.2	1037.0
290.1	1065.0
290.0	1056.0
289.9	995.0
289.8	1025.0
289.7	1038.0
289.6	1037.0
289.5	977.0
289.4	1001.0
289.3	990.0
289.2	972.0
289.1	1001.0
289.0	992.0
288.9	985.0
288.8	945.0
288.7	970.0
288.6	975.0
288.5	962.0
288.4	989.0
288.3	967.0
288.2	1044.0
288.1	1052.0
288.0	1008.0
287.9	1055.0
287.8	1083.0
287.7	1052.0
287.6	1079.0
287.5	1116.0
287.4	1153.0
287.3	1168.0
287.2	1178.0
287.1	1252.0
287.0	1254.0
286.9	1250.0
286.8	1329.0
286.7	1344.0
286.6	1449.0
286.5	1563.0
286.4	1590.0
286.3	1620.0
286.2	1649.0
286.1	1731.0
286.0	1812.0
285.9	1906.0
285.8	1962.0
285.7	1944.0
285.6	2124.0
285.5	2178.0
285.4	2305.0
285.3	2522.0
285.2	2797.0
285.1	3084.0
285.0	3345.0
284.9	3971.0
284.8	4586.0
284.7	5786.0
284.6	7339.0
284.5	9569.0
284.4	12716.0
284.3	16689.0
284.2	20094.0
284.1	20745.0
284.0	18010.0
283.9	12891.0
283.8	8055.0
283.7	4594.0
283.6	2738.0
283.5	1805.0
283.4	1346.0
283.3	995.0
283.2	786.0
283.1	614.0
283.0	525.0
282.9	449.0
282.8	419.0
282.7	408.0
282.6	356.0
282.5	327.0
282.4	301.0
282.3	329.0
282.2	334.0
282.1	351.0
282.0	381.0
281.9	434.0
281.8	588.0
281.7	710.0
281.6	748.0
281.5	707.0
281.4	608.0
281.3	393.0
281.2	295.0
281.1	224.0
281.0	194.0
280.9	184.0
280.8	173.0
280.7	149.0
280.6	132.0
280.5	133.0
280.4	140.0
280.3	125.0
280.2	133.0
280.1	118.0
280.0	117.0
279.9	121.0
279.8	135.0
279.7	131.0
279.6	120.0
279.5	126.0
279.4	131.0
279.3	115.0
279.2	114.0
279.1	126.0
279.0	135.0
278.9	120.0
278.8	101.0
278.7	93.0
278.6	99.0
278.5	111.0
278.4	104.0
278.3	113.0
278.2	112.0
278.1	119.0
278.0	126.0
277.9	103.0
277.8	102.0
277.7	109.0
277.6	102.0
277.5	97.0
277.4	101.0
277.3	98.0
277.2	94.0
277.1	98.0
277.0	110.0

File: MX-UT 0p1 20Ap location M1 in image_MXUT0p120ApCl2p_Cl2p.txt
BE/eV	PE: 20.0 eV
208.0	724.0
207.9	772.0
207.8	746.0
207.7	727.0
207.6	706.0
207.5	717.0
207.4	726.0
207.3	740.0
207.2	735.0
207.1	755.0
207.0	720.0
206.9	701.0
206.8	686.0
206.7	729.0
206.6	715.0
206.5	729.0
206.4	720.0
206.3	724.0
206.2	758.0
206.1	759.0
206.0	692.0
205.9	723.0
205.8	688.0
205.7	685.0
205.6	692.0
205.5	713.0
205.4	755.0
205.3	769.0
205.2	698.0
205.1	715.0
205.0	757.0
204.9	752.0
204.8	741.0
204.7	758.0
204.6	710.0
204.5	724.0
204.4	774.0
204.3	743.0
204.2	741.0
204.1	740.0
204.0	744.0
203.9	733.0
203.8	723.0
203.7	709.0
203.6	770.0
203.5	755.0
203.4	779.0
203.3	753.0
203.2	759.0
203.1	731.0
203.0	718.0
202.9	729.0
202.8	715.0
202.7	742.0
202.6	746.0
202.5	737.0
202.4	749.0
202.3	777.0
202.2	745.0
202.1	744.0
202.0	780.0
201.9	753.0
201.8	788.0
201.7	783.0
201.6	783.0
201.5	813.0
201.4	794.0
201.3	831.0
201.2	809.0
201.1	838.0
201.0	891.0
200.9	937.0
200.8	962.0
200.7	970.0
200.6	1051.0
200.5	1095.0
200.4	1083.0
200.3	1062.0
200.2	1004.0
200.1	958.0
200.0	877.0
199.9	896.0
199.8	864.0
199.7	861.0
199.6	909.0
199.5	898.0
199.4	951.0
199.3	1032.0
199.2	1089.0
199.1	1138.0
199.0	1219.0
198.9	1314.0
198.8	1268.0
198.7	1287.0
198.6	1204.0
198.5	1085.0
198.4	964.0
198.3	913.0
198.2	858.0
198.1	747.0
198.0	726.0
197.9	763.0
197.8	732.0
197.7	719.0
197.6	751.0
197.5	757.0
197.4	712.0
197.3	706.0
197.2	741.0
197.1	711.0
197.0	712.0
196.9	698.0
196.8	745.0
196.7	700.0
196.6	698.0
196.5	697.0
196.4	719.0
196.3	706.0
196.2	704.0
196.1	682.0
196.0	695.0
195.9	702.0
195.8	731.0
195.7	721.0
195.6	684.0
195.5	711.0
195.4	708.0
195.3	729.0
195.2	737.0
195.1	730.0
195.0	717.0

File: MX-UT 0p1 20Ap location M1 in image_MXUT0p120ApCl2s_Cl2s.txt
BE/eV	PE: 20.0 eV
285.0	2787.0
284.8	4097.0
284.6	7470.0
284.4	11643.0
284.2	10858.0
284.0	4918.0
283.8	1650.0
283.6	812.0
283.4	464.0
283.2	283.0
283.0	221.0
282.8	204.0
282.6	196.0
282.4	204.0
282.2	222.0
282.0	373.0
281.8	424.0
281.6	334.0
281.4	152.0
281.2	116.0
281.0	89.0
280.8	83.0
280.6	73.0
280.4	76.0
280.2	67.0
280.0	74.0
279.8	71.0
279.6	61.0
279.4	73.0
279.2	66.0
279.0	67.0
278.8	70.0
278.6	63.0
278.4	62.0
278.2	58.0
278.0	78.0
277.8	52.0
277.6	57.0
277.4	63.0
277.2	60.0
277.0	61.0
276.8	65.0
276.6	72.0
276.4	64.0
276.2	52.0
276.0	59.0
275.8	71.0
275.6	56.0
275.4	69.0
275.2	63.0
275.0	59.0
274.8	58.0
274.6	57.0
274.4	63.0
274.2	52.0
274.0	63.0
273.8	63.0
273.6	63.0
273.4	66.0
273.2	62.0
273.0	59.0
272.8	54.0
272.6	62.0
272.4	69.0
272.2	55.0
272.0	68.0
271.8	70.0
271.6	61.0
271.4	68.0
271.2	69.0
271.0	69.0
270.8	82.0
270.6	76.0
270.4	66.0
270.2	67.0
270.0	73.0
269.8	71.0
269.6	84.0
269.4	74.0
269.2	67.0
269.0	66.0
268.8	67.0
268.6	59.0
268.4	61.0
268.2	76.0
268.0	62.0
267.8	62.0
267.6	64.0
267.4	56.0
267.2	75.0
267.0	59.0
266.8	62.0
266.6	54.0
266.4	58.0
266.2	65.0
266.0	54.0
265.8	62.0
265.6	50.0
265.4	63.0
265.2	62.0
265.0	60.0
264.8	62.0
264.6	65.0
264.4	68.0
264.2	51.0
264.0	62.0
263.8	60.0
263.6	57.0
263.4	64.0
263.2	50.0
263.0	65.0
262.8	57.0
262.6	57.0
262.4	62.0
262.2	66.0
262.0	59.0
261.8	60.0
261.6	66.0
261.4	49.0
261.2	52.0
261.0	59.0
260.8	63.0
260.6	61.0
260.4	65.0
260.2	68.0
260.0	57.0
259.8	59.0
259.6	57.0
259.4	55.0
259.2	61.0
259.0	56.0
258.8	44.0
258.6	53.0
258.4	59.0
258.2	61.0
258.0	62.0
257.8	60.0
257.6	64.0
257.4	54.0
257.2	62.0
257.0	50.0
256.8	68.0
256.6	52.0
256.4	57.0
256.2	64.0
256.0	64.0
255.8	53.0
255.6	62.0
255.4	50.0
255.2	64.0
255.0	58.0