Folder: python_code_MXene_VRFB/XPS/Casa format (part 5)

File: MX-UT 0p5 20Ap location U1 in image-0.6530_MXUT0p520ApCl2s_Cl2s.txt
BE/eV	PE: 20.0 eV
285.0	1730.0
284.8	2033.0
284.6	2758.0
284.4	4161.0
284.2	7367.0
284.0	11833.0
283.8	10949.0
283.6	4878.0
283.4	1653.0
283.2	809.0
283.0	467.0
282.8	314.0
282.6	257.0
282.4	237.0
282.2	221.0
282.0	220.0
281.8	276.0
281.6	453.0
281.4	623.0
281.2	480.0
281.0	231.0
280.8	122.0
280.6	115.0
280.4	102.0
280.2	93.0
280.0	94.0
279.8	82.0
279.6	85.0
279.4	87.0
279.2	78.0
279.0	85.0
278.8	75.0
278.6	80.0
278.4	92.0
278.2	84.0
278.0	69.0
277.8	75.0
277.6	80.0
277.4	73.0
277.2	70.0
277.0	62.0
276.8	76.0
276.6	74.0
276.4	76.0
276.2	72.0
276.0	73.0
275.8	96.0
275.6	76.0
275.4	73.0
275.2	94.0
275.0	69.0
274.8	81.0
274.6	83.0
274.4	87.0
274.2	82.0
274.0	68.0
273.8	73.0
273.6	76.0
273.4	71.0
273.2	74.0
273.0	73.0
272.8	71.0
272.6	78.0
272.4	67.0
272.2	81.0
272.0	81.0
271.8	101.0
271.6	91.0
271.4	75.0
271.2	76.0
271.0	101.0
270.8	84.0
270.6	82.0
270.4	93.0
270.2	93.0
270.0	90.0
269.8	99.0
269.6	96.0
269.4	90.0
269.2	75.0
269.0	87.0
268.8	86.0
268.6	86.0
268.4	80.0
268.2	74.0
268.0	79.0
267.8	74.0
267.6	86.0
267.4	74.0
267.2	72.0
267.0	75.0
266.8	84.0
266.6	60.0
266.4	70.0
266.2	71.0
266.0	74.0
265.8	77.0
265.6	81.0
265.4	75.0
265.2	79.0
265.0	71.0
264.8	77.0
264.6	66.0
264.4	71.0
264.2	65.0
264.0	82.0
263.8	64.0
263.6	73.0
263.4	80.0
263.2	75.0
263.0	77.0
262.8	78.0
262.6	72.0
262.4	69.0
262.2	66.0
262.0	69.0
261.8	67.0
261.6	57.0
261.4	75.0
261.2	63.0
261.0	83.0
260.8	59.0
260.6	58.0
260.4	79.0
260.2	68.0
260.0	70.0
259.8	73.0
259.6	70.0
259.4	81.0
259.2	81.0
259.0	68.0
258.8	81.0
258.6	70.0
258.4	65.0
258.2	54.0
258.0	83.0
257.8	67.0
257.6	71.0
257.4	56.0
257.2	74.0
257.0	66.0
256.8	80.0
256.6	79.0
256.4	81.0
256.2	71.0
256.0	84.0
255.8	59.0
255.6	65.0
255.4	63.0
255.2	74.0
255.0	68.0

File: MX-UT 0p5 20Ap location U1 in image-0.6530_MXUT0p520ApTi2p_Ti2p.txt
BE/eV	PE: 20.0 eV
470.0	15744.0
469.9	16026.0
469.8	15860.0
469.7	15909.0
469.6	15831.0
469.5	15872.0
469.4	15860.0
469.3	15731.0
469.2	15882.0
469.1	15871.0
469.0	15956.0
468.9	15789.0
468.8	15820.0
468.7	15964.0
468.6	15834.0
468.5	15757.0
468.4	15865.0
468.3	15972.0
468.2	15817.0
468.1	15526.0
468.0	15675.0
467.9	15703.0
467.8	15684.0
467.7	15580.0
467.6	15702.0
467.5	15775.0
467.4	15599.0
467.3	15498.0
467.2	15558.0
467.1	15670.0
467.0	15555.0
466.9	15565.0
466.8	15433.0
466.7	15466.0
466.6	15532.0
466.5	15514.0
466.4	15437.0
466.3	15371.0
466.2	15530.0
466.1	15476.0
466.0	15522.0
465.9	15389.0
465.8	15490.0
465.7	15575.0
465.6	15466.0
465.5	15541.0
465.4	15319.0
465.3	15556.0
465.2	15413.0
465.1	15460.0
465.0	15581.0
464.9	15413.0
464.8	15460.0
464.7	15645.0
464.6	15718.0
464.5	15836.0
464.4	15505.0
464.3	15527.0
464.2	15941.0
464.1	15977.0
464.0	15995.0
463.9	16029.0
463.8	16033.0
463.7	16293.0
463.6	16329.0
463.5	16472.0
463.4	16614.0
463.3	16601.0
463.2	16704.0
463.1	16714.0
463.0	17055.0
462.9	17363.0
462.8	17496.0
462.7	17588.0
462.6	18012.0
462.5	18049.0
462.4	18411.0
462.3	18657.0
462.2	18532.0
462.1	18916.0
462.0	19038.0
461.9	19234.0
461.8	19406.0
461.7	19295.0
461.6	19673.0
461.5	19888.0
461.4	20075.0
461.3	20153.0
461.2	20247.0
461.1	20497.0
461.0	20689.0
460.9	20789.0
460.8	20709.0
460.7	20471.0
460.6	20324.0
460.5	20062.0
460.4	20044.0
460.3	19451.0
460.2	18988.0
460.1	18407.0
460.0	18005.0
459.9	17731.0
459.8	17235.0
459.7	16738.0
459.6	16532.0
459.5	16505.0
459.4	16408.0
459.3	16305.0
459.2	16165.0
459.1	16169.0
459.0	16205.0
458.9	16041.0
458.8	16050.0
458.7	16257.0
458.6	16004.0
458.5	16193.0
458.4	16354.0
458.3	16139.0
458.2	16283.0
458.1	16365.0
458.0	16574.0
457.9	16465.0
457.8	16574.0
457.7	16615.0
457.6	17010.0
457.5	17063.0
457.4	17191.0
457.3	17873.0
457.2	18029.0
457.1	18433.0
457.0	18966.0
456.9	19283.0
456.8	19552.0
456.7	20163.0
456.6	20730.0
456.5	20878.0
456.4	21550.0
456.3	21968.0
456.2	22470.0
456.1	22802.0
456.0	23160.0
455.9	23901.0
455.8	24322.0
455.7	24770.0
455.6	25372.0
455.5	25397.0
455.4	25870.0
455.3	26196.0
455.2	26298.0
455.1	26706.0
455.0	26821.0
454.9	26918.0
454.8	26785.0
454.7	26416.0
454.6	26044.0
454.5	25831.0
454.4	24860.0
454.3	23890.0
454.2	21809.0
454.1	19243.0
454.0	16348.0
453.9	14368.0
453.8	13215.0
453.7	12433.0
453.6	11984.0
453.5	11717.0
453.4	11550.0
453.3	11641.0
453.2	11444.0
453.1	11454.0
453.0	11337.0
452.9	11405.0
452.8	11154.0
452.7	11101.0
452.6	11133.0
452.5	11071.0
452.4	11072.0
452.3	10885.0
452.2	11000.0
452.1	10949.0
452.0	10917.0
451.9	11053.0
451.8	11118.0
451.7	11021.0
451.6	11002.0
451.5	10903.0
451.4	10847.0
451.3	10836.0
451.2	10924.0
451.1	10955.0
451.0	10889.0
450.9	10910.0
450.8	10842.0
450.7	10895.0
450.6	10979.0
450.5	10977.0
450.4	10825.0
450.3	10851.0
450.2	10769.0
450.1	10863.0
450.0	10773.0

File: MX-UT 0p5 20Ap location U1 in image-0.6530_MXUT0p520ApTi3p_Ti3p.txt
BE/eV	PE: 20.0 eV
49.0	405.0
48.8	407.0
48.6	410.0
48.4	423.0
48.2	382.0
48.0	414.0
47.8	410.0
47.6	372.0
47.4	427.0
47.2	407.0
47.0	392.0
46.8	410.0
46.6	397.0
46.4	407.0
46.2	391.0
46.0	389.0
45.8	389.0
45.6	375.0
45.4	371.0
45.2	395.0
45.0	376.0
44.8	389.0
44.6	388.0
44.4	379.0
44.2	386.0
44.0	345.0
43.8	367.0
43.6	369.0
43.4	380.0
43.2	345.0
43.0	375.0
42.8	385.0
42.6	381.0
42.4	346.0
42.2	387.0
42.0	333.0
41.8	376.0
41.6	382.0
41.4	381.0
41.2	375.0
41.0	392.0
40.8	380.0
40.6	366.0
40.4	390.0
40.2	381.0
40.0	351.0
39.8	395.0
39.6	398.0
39.4	406.0
39.2	413.0
39.0	408.0
38.8	438.0
38.6	431.0
38.4	449.0
38.2	481.0
38.0	452.0
37.8	473.0
37.6	467.0
37.4	501.0
37.2	513.0
37.0	535.0
36.8	592.0
36.6	572.0
36.4	565.0
36.2	643.0
36.0	676.0
35.8	716.0
35.6	785.0
35.4	848.0
35.2	852.0
35.0	909.0
34.8	927.0
34.6	988.0
34.4	907.0
34.2	977.0
34.0	965.0
33.8	915.0
33.6	871.0
33.4	769.0
33.2	687.0
33.0	577.0
32.8	484.0
32.6	367.0
32.4	310.0
32.2	282.0
32.0	276.0
31.8	252.0
31.6	241.0
31.4	224.0
31.2	227.0
31.0	226.0
30.8	218.0
30.6	217.0
30.4	239.0
30.2	240.0
30.0	246.0
29.8	259.0
29.6	252.0
29.4	248.0
29.2	256.0
29.0	234.0
28.8	240.0
28.6	227.0
28.4	195.0
28.2	228.0
28.0	198.0
27.8	194.0
27.6	171.0
27.4	169.0
27.2	171.0
27.0	194.0
26.8	172.0
26.6	175.0
26.4	179.0
26.2	176.0
26.0	175.0
25.8	172.0
25.6	177.0
25.4	166.0
25.2	170.0
25.0	169.0
24.8	188.0
24.6	173.0
24.4	180.0
24.2	176.0
24.0	175.0
23.8	181.0
23.6	179.0
23.4	204.0
23.2	198.0
23.0	203.0
22.8	197.0
22.6	207.0
22.4	231.0
22.2	232.0
22.0	222.0
21.8	254.0
21.6	262.0
21.4	247.0
21.2	275.0
21.0	274.0
20.8	294.0
20.6	278.0
20.4	294.0
20.2	291.0
20.0	280.0
19.8	276.0
19.6	282.0
19.4	257.0
19.2	286.0
19.0	288.0

File: MX-UT 0p5 20Ap location U1 in image_MXUT0p520ApO1s_O1s.txt
BE/eV	PE: 20.0 eV
540.0	10439.0
539.9	10357.0
539.8	10366.0
539.7	10444.0
539.6	10460.0
539.5	10569.0
539.4	10529.0
539.3	10275.0
539.2	10426.0
539.1	10528.0
539.0	10216.0
538.9	10340.0
538.8	10493.0
538.7	10366.0
538.6	10358.0
538.5	10336.0
538.4	10338.0
538.3	10309.0
538.2	10508.0
538.1	10444.0
538.0	10337.0
537.9	10354.0
537.8	10340.0
537.7	10361.0
537.6	10448.0
537.5	10473.0
537.4	10369.0
537.3	10430.0
537.2	10417.0
537.1	10319.0
537.0	10247.0
536.9	10240.0
536.8	10316.0
536.7	10397.0
536.6	10492.0
536.5	10318.0
536.4	10259.0
536.3	10239.0
536.2	10274.0
536.1	10344.0
536.0	10504.0
535.9	10414.0
535.8	10340.0
535.7	10459.0
535.6	10423.0
535.5	10378.0
535.4	10326.0
535.3	10389.0
535.2	10586.0
535.1	10436.0
535.0	10596.0
534.9	10434.0
534.8	10374.0
534.7	10341.0
534.6	10448.0
534.5	10510.0
534.4	10426.0
534.3	10588.0
534.2	10652.0
534.1	10673.0
534.0	10835.0
533.9	10940.0
533.8	10944.0
533.7	11097.0
533.6	11098.0
533.5	11139.0
533.4	11354.0
533.3	11406.0
533.2	11707.0
533.1	11900.0
533.0	11761.0
532.9	11924.0
532.8	12190.0
532.7	12097.0
532.6	12382.0
532.5	12479.0
532.4	12345.0
532.3	12480.0
532.2	12609.0
532.1	12572.0
532.0	12377.0
531.9	12662.0
531.8	12805.0
531.7	12607.0
531.6	12809.0
531.5	12745.0
531.4	12620.0
531.3	12751.0
531.2	12718.0
531.1	12547.0
531.0	12297.0
530.9	12392.0
530.8	12133.0
530.7	11979.0
530.6	11958.0
530.5	11952.0
530.4	11908.0
530.3	11807.0
530.2	11806.0
530.1	11966.0
530.0	12191.0
529.9	12251.0
529.8	12435.0
529.7	12733.0
529.6	13191.0
529.5	13535.0
529.4	14168.0
529.3	14801.0
529.2	14866.0
529.1	14677.0
529.0	14294.0
528.9	13207.0
528.8	12519.0
528.7	11853.0
528.6	11462.0
528.5	11048.0
528.4	10648.0
528.3	10579.0
528.2	10478.0
528.1	10196.0
528.0	10243.0
527.9	10254.0
527.8	10290.0
527.7	10217.0
527.6	10168.0
527.5	10202.0
527.4	10254.0
527.3	10366.0
527.2	10199.0
527.1	10074.0
527.0	10156.0
526.9	10075.0
526.8	9994.0
526.7	10058.0
526.6	10184.0
526.5	10262.0
526.4	10199.0
526.3	10166.0
526.2	10023.0
526.1	10232.0
526.0	10092.0
525.9	10142.0
525.8	10175.0
525.7	10014.0
525.6	10163.0
525.5	10245.0
525.4	10330.0
525.3	10349.0
525.2	10313.0
525.1	10123.0
525.0	10187.0

File: MX-UT 0p5 20Ap location U1 in image_MXUT0p520ApTi2s_Ti2s.txt
BE/eV	PE: 20.0 eV
579.0	11726.0
578.8	11703.0
578.6	11749.0
578.4	11602.0
578.2	11445.0
578.0	11674.0
577.8	11514.0
577.6	11483.0
577.4	11524.0
577.2	11726.0
577.0	11573.0
576.8	11772.0
576.6	11772.0
576.4	11558.0
576.2	11688.0
576.0	11651.0
575.8	11719.0
575.6	11718.0
575.4	11530.0
575.2	11609.0
575.0	11791.0
574.8	11517.0
574.6	11646.0
574.4	11530.0
574.2	11564.0
574.0	11429.0
573.8	11362.0
573.6	11510.0
573.4	11593.0
573.2	11458.0
573.0	11592.0
572.8	11477.0
572.6	11730.0
572.4	11454.0
572.2	11642.0
572.0	11467.0
571.8	11469.0
571.6	11577.0
571.4	11338.0
571.2	11425.0
571.0	11543.0
570.8	11495.0
570.6	11400.0
570.4	11524.0
570.2	11587.0
570.0	11524.0
569.8	11418.0
569.6	11420.0
569.4	11634.0
569.2	11448.0
569.0	11404.0
568.8	11518.0
568.6	11535.0
568.4	11601.0
568.2	11620.0
568.0	11664.0
567.8	11584.0
567.6	11302.0
567.4	11482.0
567.2	11583.0
567.0	11730.0
566.8	11744.0
566.6	11740.0
566.4	11623.0
566.2	11990.0
566.0	11710.0
565.8	11880.0
565.6	11773.0
565.4	11921.0
565.2	11988.0
565.0	12239.0
564.8	12146.0
564.6	12178.0
564.4	12228.0
564.2	12307.0
564.0	12465.0
563.8	12361.0
563.6	12370.0
563.4	12367.0
563.2	12539.0
563.0	12679.0
562.8	12729.0
562.6	12758.0
562.4	12685.0
562.2	12890.0
562.0	12915.0
561.8	12839.0
561.6	12888.0
561.4	12846.0
561.2	12747.0
561.0	12721.0
560.8	12643.0
560.6	12631.0
560.4	12367.0
560.2	12473.0
560.0	12307.0
559.8	12056.0
559.6	12101.0
559.4	11914.0
559.2	11804.0
559.0	11770.0
558.8	11705.0
558.6	11485.0
558.4	11369.0
558.2	11275.0
558.0	11292.0
557.8	11087.0
557.6	11109.0
557.4	11104.0
557.2	11237.0
557.0	11168.0
556.8	11150.0
556.6	11137.0
556.4	11021.0
556.2	11024.0
556.0	10978.0
555.8	11016.0
555.6	10906.0
555.4	10804.0
555.2	11045.0
555.0	10937.0
554.8	10841.0
554.6	10794.0
554.4	10786.0
554.2	10792.0
554.0	10946.0
553.8	10622.0
553.6	10808.0
553.4	10815.0
553.2	10860.0
553.0	10832.0
552.8	10786.0
552.6	10705.0
552.4	10644.0
552.2	10794.0
552.0	10721.0
551.8	10749.0
551.6	10728.0
551.4	10876.0
551.2	10725.0
551.0	10723.0
550.8	10790.0
550.6	10657.0
550.4	10714.0
550.2	10733.0
550.0	10520.0
549.8	10627.0
549.6	10588.0
549.4	10735.0
549.2	10700.0
549.0	10596.0

File: MX-UT 0p5 20Ap location U1 in image_MXUT0p520Apwide_wide.txt
BE/eV	PE: 160.0 eV
1200.0	43756.0
1195.0	44050.0
1190.0	44359.0
1185.0	45084.0
1180.0	45782.0
1175.0	46271.0
1170.0	46431.0
1165.0	46960.0
1160.0	47828.0
1155.0	48445.0
1150.0	48835.0
1145.0	49125.0
1140.0	48604.0
1135.0	50467.0
1130.0	51257.0
1125.0	51879.0
1120.0	50992.0
1115.0	50600.0
1110.0	52028.0
1105.0	56260.0
1100.0	54538.0
1095.0	44957.0
1090.0	42299.0
1085.0	41409.0
1080.0	41006.0
1075.0	42125.0
1070.0	46064.0
1065.0	43697.0
1060.0	38914.0
1055.0	38311.0
1050.0	38281.0
1045.0	38635.0
1040.0	39492.0
1035.0	39796.0
1030.0	39326.0
1025.0	39354.0
1020.0	39971.0
1015.0	39732.0
1010.0	40045.0
1005.0	40332.0
1000.0	40903.0
995.0	41344.0
990.0	41575.0
985.0	41296.0
980.0	41932.0
975.0	43936.0
970.0	42854.0
965.0	39957.0
960.0	39791.0
955.0	40201.0
950.0	39861.0
945.0	40161.0
940.0	40387.0
935.0	40561.0
930.0	40586.0
925.0	40907.0
920.0	41543.0
915.0	41541.0
910.0	41849.0
905.0	42048.0
900.0	42115.0
895.0	42354.0
890.0	42850.0
885.0	42990.0
880.0	43478.0
875.0	43926.0
870.0	43682.0
865.0	43798.0
860.0	44447.0
855.0	46000.0
850.0	44489.0
845.0	44982.0
840.0	44371.0
835.0	45348.0
830.0	47713.0
825.0	44469.0
820.0	43600.0
815.0	43978.0
810.0	43941.0
805.0	44340.0
800.0	44306.0
795.0	44260.0
790.0	44849.0
785.0	44755.0
780.0	45522.0
775.0	45268.0
770.0	45876.0
765.0	45890.0
760.0	46411.0
755.0	46230.0
750.0	46708.0
745.0	46845.0
740.0	47160.0
735.0	47322.0
730.0	47398.0
725.0	47488.0
720.0	47688.0
715.0	48333.0
710.0	48933.0
705.0	48704.0
700.0	48376.0
695.0	48151.0
690.0	48673.0
685.0	60304.0
680.0	48025.0
675.0	47985.0
670.0	47863.0
665.0	48294.0
660.0	48757.0
655.0	48903.0
650.0	49094.0
645.0	49241.0
640.0	49448.0
635.0	50119.0
630.0	50210.0
625.0	49864.0
620.0	50927.0
615.0	51301.0
610.0	51431.0
605.0	51379.0
600.0	51810.0
595.0	52190.0
590.0	53141.0
585.0	53547.0
580.0	53882.0
575.0	54489.0
570.0	53766.0
565.0	56487.0
560.0	57199.0
555.0	50132.0
550.0	49473.0
545.0	49234.0
540.0	48594.0
535.0	49255.0
530.0	59198.0
525.0	47517.0
520.0	47593.0
515.0	47794.0
510.0	48513.0
505.0	48913.0
500.0	48176.0
495.0	48531.0
490.0	49131.0
485.0	50913.0
480.0	52033.0
475.0	52288.0
470.0	50665.0
465.0	50807.0
460.0	60492.0
455.0	74166.0
450.0	32930.0
445.0	32441.0
440.0	32254.0
435.0	32459.0
430.0	32436.0
425.0	32918.0
420.0	32969.0
415.0	33132.0
410.0	32933.0
405.0	33065.0
400.0	34029.0
395.0	33434.0
390.0	33313.0
385.0	33634.0
380.0	33921.0
375.0	34053.0
370.0	34200.0
365.0	33943.0
360.0	34099.0
355.0	34575.0
350.0	35075.0
345.0	35528.0
340.0	35245.0
335.0	34324.0
330.0	33497.0
325.0	34166.0
320.0	36978.0
315.0	38732.0
310.0	37366.0
305.0	30507.0
300.0	22602.0
295.0	21290.0
290.0	32297.0
285.0	101321.0
280.0	9641.0
275.0	3975.0
270.0	4491.0
265.0	3752.0
260.0	3609.0
255.0	3603.0
250.0	3611.0
245.0	3705.0
240.0	3701.0
235.0	3669.0
230.0	3695.0
225.0	3815.0
220.0	3753.0
215.0	3897.0
210.0	3777.0
205.0	3816.0
200.0	4984.0
195.0	3653.0
190.0	3734.0
185.0	3676.0
180.0	3711.0
175.0	3815.0
170.0	3738.0
165.0	3815.0
160.0	3835.0
155.0	3962.0
150.0	3866.0
145.0	3990.0
140.0	3949.0
135.0	4053.0
130.0	4063.0
125.0	4232.0
120.0	4197.0
115.0	4236.0
110.0	4291.0
105.0	4423.0
100.0	4441.0
95.0	4320.0
90.0	4478.0
85.0	4739.0
80.0	4776.0
75.0	4739.0
70.0	4412.0
65.0	4643.0
60.0	6882.0
55.0	4474.0
50.0	4153.0
45.0	3932.0
40.0	4105.0
35.0	8403.0
30.0	2428.0
25.0	1786.0
20.0	2667.0
15.0	2238.0
10.0	1665.0
5.0	1231.0
0.0	141.0
-5.0	3.0

File: UT 18 Ap location T1 in image-0.6322_UT18ApF1s_F1s.txt
BE/eV	PE: 20.0 eV
695.0	5789.0
694.9	5729.0
694.8	5766.0
694.7	5786.0
694.6	5866.0
694.5	5721.0
694.4	5701.0
694.3	5691.0
694.2	5810.0
694.1	5691.0
694.0	5718.0
693.9	5693.0
693.8	5647.0
693.7	5677.0
693.6	5750.0
693.5	5654.0
693.4	5571.0
693.3	5792.0
693.2	5804.0
693.1	5830.0
693.0	5885.0
692.9	5715.0
692.8	5741.0
692.7	5740.0
692.6	5735.0
692.5	5829.0
692.4	5779.0
692.3	5918.0
692.2	5861.0
692.1	5751.0
692.0	5727.0
691.9	5742.0
691.8	5731.0
691.7	5792.0
691.6	5745.0
691.5	5627.0
691.4	5848.0
691.3	5833.0
691.2	5690.0
691.1	5680.0
691.0	5675.0
690.9	5787.0
690.8	5841.0
690.7	5893.0
690.6	5931.0
690.5	5713.0
690.4	5768.0
690.3	5893.0
690.2	5780.0
690.1	5797.0
690.0	5743.0
689.9	5694.0
689.8	5854.0
689.7	5847.0
689.6	5793.0
689.5	5773.0
689.4	5786.0
689.3	5857.0
689.2	5806.0
689.1	5766.0
689.0	5890.0
688.9	5838.0
688.8	5798.0
688.7	5818.0
688.6	5829.0
688.5	5813.0
688.4	5799.0
688.3	5824.0
688.2	5747.0
688.1	5804.0
688.0	5829.0
687.9	5848.0
687.8	5791.0
687.7	5730.0
687.6	5725.0
687.5	5823.0
687.4	5847.0
687.3	5831.0
687.2	5686.0
687.1	5698.0
687.0	5841.0
686.9	5792.0
686.8	5779.0
686.7	5827.0
686.6	5855.0
686.5	5842.0
686.4	5833.0
686.3	5787.0
686.2	5780.0
686.1	5782.0
686.0	5810.0
685.9	5761.0
685.8	5746.0
685.7	5753.0
685.6	5786.0
685.5	5891.0
685.4	5738.0
685.3	5760.0
685.2	5734.0
685.1	5694.0
685.0	5720.0
684.9	5847.0
684.8	5803.0
684.7	5710.0
684.6	5778.0
684.5	5838.0
684.4	5740.0
684.3	5734.0
684.2	5775.0
684.1	5810.0
684.0	5762.0
683.9	5775.0
683.8	5793.0
683.7	5793.0
683.6	5768.0
683.5	5880.0
683.4	5817.0
683.3	5764.0
683.2	5773.0
683.1	5740.0
683.0	5796.0
682.9	5702.0
682.8	5731.0
682.7	5753.0
682.6	5783.0
682.5	5722.0
682.4	5810.0
682.3	5802.0
682.2	5849.0
682.1	5729.0
682.0	5791.0
681.9	5862.0
681.8	5807.0
681.7	5742.0
681.6	5815.0
681.5	5793.0
681.4	5816.0
681.3	5768.0
681.2	5648.0
681.1	5788.0
681.0	5786.0
680.9	5708.0
680.8	5691.0
680.7	5819.0
680.6	5743.0
680.5	5725.0
680.4	5747.0
680.3	5737.0
680.2	5705.0
680.1	5673.0
680.0	5817.0
679.9	5747.0
679.8	5789.0
679.7	5750.0
679.6	5816.0
679.5	5896.0
679.4	5769.0
679.3	5765.0
679.2	5769.0
679.1	5840.0
679.0	5874.0
678.9	5793.0
678.8	5753.0
678.7	5710.0
678.6	5669.0
678.5	5793.0
678.4	5712.0
678.3	5769.0
678.2	5670.0
678.1	5735.0
678.0	5848.0
677.9	5737.0
677.8	5780.0
677.7	5862.0
677.6	5737.0
677.5	5795.0
677.4	5759.0
677.3	5795.0
677.2	5797.0
677.1	5774.0
677.0	5719.0
676.9	5699.0
676.8	5801.0
676.7	5896.0
676.6	5755.0
676.5	5803.0
676.4	5857.0
676.3	5845.0
676.2	5887.0
676.1	5887.0
676.0	5825.0
675.9	5781.0
675.8	5730.0
675.7	5800.0
675.6	5854.0
675.5	5742.0
675.4	5784.0
675.3	5743.0
675.2	5714.0
675.1	5828.0
675.0	5895.0

File: UT 18 Ap location T1 in image-0.6322_UT18ApTi2s_Ti2s.txt
BE/eV	PE: 20.0 eV
579.0	7970.0
578.8	7924.0
578.6	8111.0
578.4	8085.0
578.2	7933.0
578.0	8039.0
577.8	8115.0
577.6	8054.0
577.4	8008.0
577.2	8071.0
577.0	8100.0
576.8	8161.0
576.6	8119.0
576.4	8167.0
576.2	8109.0
576.0	8039.0
575.8	8177.0
575.6	8082.0
575.4	7997.0
575.2	8195.0
575.0	7935.0
574.8	8046.0
574.6	8001.0
574.4	7954.0
574.2	7924.0
574.0	8137.0
573.8	8085.0
573.6	8099.0
573.4	7978.0
573.2	8045.0
573.0	7917.0
572.8	8044.0
572.6	8024.0
572.4	8088.0
572.2	8129.0
572.0	8153.0
571.8	8084.0
571.6	7947.0
571.4	8095.0
571.2	7983.0
571.0	8174.0
570.8	8014.0
570.6	8032.0
570.4	8056.0
570.2	8127.0
570.0	8035.0
569.8	8074.0
569.6	8066.0
569.4	8071.0
569.2	8020.0
569.0	8199.0
568.8	8195.0
568.6	8127.0
568.4	7964.0
568.2	8080.0
568.0	8200.0
567.8	7961.0
567.6	8109.0
567.4	7991.0
567.2	8075.0
567.0	8071.0
566.8	8133.0
566.6	7884.0
566.4	8057.0
566.2	8119.0
566.0	8102.0
565.8	8052.0
565.6	8015.0
565.4	8008.0
565.2	7991.0
565.0	8000.0
564.8	8089.0
564.6	8043.0
564.4	8098.0
564.2	8191.0
564.0	8093.0
563.8	8059.0
563.6	8145.0
563.4	8078.0
563.2	8219.0
563.0	8099.0
562.8	8141.0
562.6	8279.0
562.4	8126.0
562.2	8141.0
562.0	8050.0
561.8	8079.0
561.6	7982.0
561.4	8054.0
561.2	8209.0
561.0	8140.0
560.8	8111.0
560.6	8300.0
560.4	7895.0
560.2	8229.0
560.0	7989.0
559.8	8166.0
559.6	8180.0
559.4	8169.0
559.2	8116.0
559.0	8213.0
558.8	8100.0
558.6	8146.0
558.4	8160.0
558.2	8220.0
558.0	8203.0
557.8	8232.0
557.6	8112.0
557.4	8274.0
557.2	8123.0
557.0	8117.0
556.8	8227.0
556.6	8281.0
556.4	8159.0
556.2	8216.0
556.0	8185.0
555.8	8160.0
555.6	8137.0
555.4	8070.0
555.2	8241.0
555.0	8125.0
554.8	8089.0
554.6	8245.0
554.4	8085.0
554.2	8193.0
554.0	8151.0
553.8	8102.0
553.6	8150.0
553.4	8214.0
553.2	8177.0
553.0	8155.0
552.8	8026.0
552.6	8181.0
552.4	8196.0
552.2	8193.0
552.0	8203.0
551.8	8092.0
551.6	8132.0
551.4	8200.0
551.2	8133.0
551.0	8160.0
550.8	8151.0
550.6	8128.0
550.4	8073.0
550.2	8092.0
550.0	8246.0
549.8	8074.0
549.6	8087.0
549.4	8055.0
549.2	8056.0
549.0	7941.0

File: UT 18 Ap location T1 in image-0.6322_UT18ApTi3s_Ti3s.txt
BE/eV	PE: 20.0 eV
74.0	146.0
73.8	151.0
73.6	168.0
73.4	134.0
73.2	149.0
73.0	154.0
72.8	133.0
72.6	146.0
72.4	132.0
72.2	138.0
72.0	133.0
71.8	144.0
71.6	156.0
71.4	139.0
71.2	154.0
71.0	145.0
70.8	142.0
70.6	127.0
70.4	158.0
70.2	146.0
70.0	144.0
69.8	160.0
69.6	149.0
69.4	170.0
69.2	150.0
69.0	148.0
68.8	125.0
68.6	148.0
68.4	140.0
68.2	136.0
68.0	170.0
67.8	151.0
67.6	134.0
67.4	154.0
67.2	143.0
67.0	152.0
66.8	134.0
66.6	141.0
66.4	122.0
66.2	141.0
66.0	151.0
65.8	156.0
65.6	146.0
65.4	130.0
65.2	144.0
65.0	176.0
64.8	133.0
64.6	151.0
64.4	143.0
64.2	139.0
64.0	159.0
63.8	144.0
63.6	135.0
63.4	134.0
63.2	148.0
63.0	132.0
62.8	137.0
62.6	154.0
62.4	155.0
62.2	150.0
62.0	152.0
61.8	154.0
61.6	140.0
61.4	130.0
61.2	150.0
61.0	165.0
60.8	154.0
60.6	146.0
60.4	134.0
60.2	134.0
60.0	149.0
59.8	143.0
59.6	135.0
59.4	147.0
59.2	141.0
59.0	149.0
58.8	159.0
58.6	151.0
58.4	136.0
58.2	168.0
58.0	142.0
57.8	161.0
57.6	151.0
57.4	150.0
57.2	144.0
57.0	138.0
56.8	156.0
56.6	138.0
56.4	153.0
56.2	145.0
56.0	155.0
55.8	152.0
55.6	147.0
55.4	144.0
55.2	148.0
55.0	144.0
54.8	155.0
54.6	152.0
54.4	148.0
54.2	164.0
54.0	136.0
53.8	151.0
53.6	150.0
53.4	163.0
53.2	143.0
53.0	148.0
52.8	161.0
52.6	145.0
52.4	163.0
52.2	144.0
52.0	168.0
51.8	160.0
51.6	150.0
51.4	145.0
51.2	174.0
51.0	151.0
50.8	158.0
50.6	166.0
50.4	152.0
50.2	158.0
50.0	167.0
49.8	153.0
49.6	167.0
49.4	170.0
49.2	165.0
49.0	164.0
48.8	164.0
48.6	160.0
48.4	173.0
48.2	166.0
48.0	166.0
47.8	166.0
47.6	182.0
47.4	182.0
47.2	145.0
47.0	164.0
46.8	182.0
46.6	158.0
46.4	160.0
46.2	166.0
46.0	177.0
45.8	167.0
45.6	172.0
45.4	161.0
45.2	175.0
45.0	174.0
44.8	172.0
44.6	180.0
44.4	171.0
44.2	164.0
44.0	160.0

File: UT 18 Ap location T1 in image_UT18ApC1s_C1s.txt
BE/eV	PE: 20.0 eV
295.0	721.0
294.9	762.0
294.8	759.0
294.7	798.0
294.6	820.0
294.5	840.0
294.4	792.0
294.3	825.0
294.2	810.0
294.1	842.0
294.0	847.0
293.9	819.0
293.8	848.0
293.7	833.0
293.6	800.0
293.5	831.0
293.4	795.0
293.3	797.0
293.2	808.0
293.1	852.0
293.0	846.0
292.9	846.0
292.8	861.0
292.7	872.0
292.6	865.0
292.5	870.0
292.4	880.0
292.3	895.0
292.2	907.0
292.1	942.0
292.0	977.0
291.9	988.0
291.8	1001.0
291.7	996.0
291.6	1034.0
291.5	1083.0
291.4	1109.0
291.3	1107.0
291.2	1106.0
291.1	1104.0
291.0	1201.0
290.9	1128.0
290.8	1200.0
290.7	1198.0
290.6	1230.0
290.5	1172.0
290.4	1193.0
290.3	1178.0
290.2	1214.0
290.1	1200.0
290.0	1090.0
289.9	1135.0
289.8	1159.0
289.7	1127.0
289.6	1166.0
289.5	1156.0
289.4	1137.0
289.3	1141.0
289.2	1122.0
289.1	1104.0
289.0	1131.0
288.9	1134.0
288.8	1134.0
288.7	1142.0
288.6	1152.0
288.5	1161.0
288.4	1189.0
288.3	1154.0
288.2	1166.0
288.1	1156.0
288.0	1160.0
287.9	1171.0
287.8	1128.0
287.7	1160.0
287.6	1219.0
287.5	1232.0
287.4	1284.0
287.3	1299.0
287.2	1290.0
287.1	1300.0
287.0	1316.0
286.9	1405.0
286.8	1417.0
286.7	1459.0
286.6	1498.0
286.5	1571.0
286.4	1594.0
286.3	1712.0
286.2	1774.0
286.1	1844.0
286.0	1981.0
285.9	2027.0
285.8	2131.0
285.7	2218.0
285.6	2301.0
285.5	2386.0
285.4	2440.0
285.3	2529.0
285.2	2742.0
285.1	2887.0
285.0	3093.0
284.9	3382.0
284.8	3682.0
284.7	4259.0
284.6	5026.0
284.5	6002.0
284.4	7615.0
284.3	10084.0
284.2	13816.0
284.1	18764.0
284.0	23025.0
283.9	24820.0
283.8	22477.0
283.7	16787.0
283.6	10456.0
283.5	5895.0
283.4	3322.0
283.3	2016.0
283.2	1413.0
283.1	1069.0
283.0	794.0
282.9	595.0
282.8	470.0
282.7	369.0
282.6	324.0
282.5	279.0
282.4	244.0
282.3	221.0
282.2	213.0
282.1	178.0
282.0	174.0
281.9	169.0
281.8	161.0
281.7	144.0
281.6	129.0
281.5	126.0
281.4	135.0
281.3	113.0
281.2	118.0
281.1	117.0
281.0	103.0
280.9	100.0
280.8	106.0
280.7	97.0
280.6	89.0
280.5	82.0
280.4	82.0
280.3	81.0
280.2	74.0
280.1	81.0
280.0	82.0
279.9	62.0
279.8	68.0
279.7	78.0
279.6	63.0
279.5	64.0
279.4	58.0
279.3	72.0
279.2	61.0
279.1	65.0
279.0	54.0
278.9	59.0
278.8	49.0
278.7	55.0
278.6	53.0
278.5	55.0
278.4	53.0
278.3	55.0
278.2	61.0
278.1	49.0
278.0	54.0
277.9	61.0
277.8	63.0
277.7	64.0
277.6	64.0
277.5	67.0
277.4	57.0
277.3	49.0
277.2	55.0
277.1	50.0
277.0	48.0

File: UT 18 Ap location T1 in image_UT18ApCl2p_Cl2p.txt
BE/eV	PE: 20.0 eV
208.0	323.0
207.9	318.0
207.8	317.0
207.7	305.0
207.6	326.0
207.5	334.0
207.4	317.0
207.3	291.0
207.2	305.0
207.1	307.0
207.0	335.0
206.9	331.0
206.8	304.0
206.7	299.0
206.6	333.0
206.5	331.0
206.4	339.0
206.3	299.0
206.2	310.0
206.1	309.0
206.0	307.0
205.9	332.0
205.8	321.0
205.7	320.0
205.6	321.0
205.5	331.0
205.4	336.0
205.3	334.0
205.2	336.0
205.1	328.0
205.0	321.0
204.9	349.0
204.8	343.0
204.7	332.0
204.6	325.0
204.5	307.0
204.4	311.0
204.3	339.0
204.2	350.0
204.1	322.0
204.0	314.0
203.9	310.0
203.8	310.0
203.7	301.0
203.6	328.0
203.5	333.0
203.4	335.0
203.3	321.0
203.2	324.0
203.1	328.0
203.0	337.0
202.9	317.0
202.8	310.0
202.7	309.0
202.6	325.0
202.5	320.0
202.4	325.0
202.3	310.0
202.2	318.0
202.1	332.0
202.0	356.0
201.9	352.0
201.8	328.0
201.7	339.0
201.6	338.0
201.5	337.0
201.4	317.0
201.3	326.0
201.2	332.0
201.1	333.0
201.0	308.0
200.9	319.0
200.8	336.0
200.7	306.0
200.6	306.0
200.5	320.0
200.4	335.0
200.3	333.0
200.2	327.0
200.1	350.0
200.0	329.0
199.9	349.0
199.8	367.0
199.7	348.0
199.6	362.0
199.5	347.0
199.4	332.0
199.3	309.0
199.2	338.0
199.1	355.0
199.0	345.0
198.9	325.0
198.8	329.0
198.7	337.0
198.6	300.0
198.5	319.0
198.4	328.0
198.3	341.0
198.2	346.0
198.1	340.0
198.0	333.0
197.9	306.0
197.8	307.0
197.7	304.0
197.6	311.0
197.5	316.0
197.4	347.0
197.3	299.0
197.2	310.0
197.1	335.0
197.0	344.0
196.9	355.0
196.8	339.0
196.7	321.0
196.6	320.0
196.5	330.0
196.4	333.0
196.3	312.0
196.2	330.0
196.1	332.0
196.0	318.0
195.9	333.0
195.8	321.0
195.7	317.0
195.6	336.0
195.5	321.0
195.4	320.0
195.3	331.0
195.2	321.0
195.1	297.0
195.0	307.0