Folder: python_code_MXene_VRFB/XPS/Casa format (part 4)

File: MX-UT 0p1 20Ap location M1 in image_MXUT0p120ApF1s_F1s.txt
BE/eV	PE: 20.0 eV
695.0	7254.0
694.9	7314.0
694.8	7250.0
694.7	7355.0
694.6	7196.0
694.5	7335.0
694.4	7276.0
694.3	7225.0
694.2	7310.0
694.1	7269.0
694.0	7206.0
693.9	7291.0
693.8	7385.0
693.7	7277.0
693.6	7299.0
693.5	7284.0
693.4	7427.0
693.3	7347.0
693.2	7320.0
693.1	7247.0
693.0	7346.0
692.9	7457.0
692.8	7349.0
692.7	7194.0
692.6	7321.0
692.5	7502.0
692.4	7275.0
692.3	7224.0
692.2	7244.0
692.1	7464.0
692.0	7338.0
691.9	7373.0
691.8	7203.0
691.7	7207.0
691.6	7324.0
691.5	7392.0
691.4	7368.0
691.3	7412.0
691.2	7368.0
691.1	7420.0
691.0	7416.0
690.9	7265.0
690.8	7296.0
690.7	7359.0
690.6	7354.0
690.5	7255.0
690.4	7257.0
690.3	7332.0
690.2	7351.0
690.1	7391.0
690.0	7378.0
689.9	7275.0
689.8	7315.0
689.7	7300.0
689.6	7322.0
689.5	7286.0
689.4	7313.0
689.3	7305.0
689.2	7385.0
689.1	7451.0
689.0	7404.0
688.9	7364.0
688.8	7537.0
688.7	7499.0
688.6	7304.0
688.5	7235.0
688.4	7464.0
688.3	7378.0
688.2	7473.0
688.1	7382.0
688.0	7364.0
687.9	7439.0
687.8	7324.0
687.7	7320.0
687.6	7442.0
687.5	7566.0
687.4	7372.0
687.3	7601.0
687.2	7463.0
687.1	7564.0
687.0	7430.0
686.9	7517.0
686.8	7462.0
686.7	7583.0
686.6	7574.0
686.5	7590.0
686.4	7744.0
686.3	7638.0
686.2	7714.0
686.1	7765.0
686.0	7815.0
685.9	7834.0
685.8	7900.0
685.7	7951.0
685.6	8083.0
685.5	8288.0
685.4	8354.0
685.3	8602.0
685.2	9004.0
685.1	9261.0
685.0	9565.0
684.9	9897.0
684.8	10249.0
684.7	10300.0
684.6	10300.0
684.5	10224.0
684.4	10065.0
684.3	9696.0
684.2	9198.0
684.1	8769.0
684.0	8436.0
683.9	8132.0
683.8	8002.0
683.7	7888.0
683.6	7568.0
683.5	7444.0
683.4	7288.0
683.3	7411.0
683.2	7407.0
683.1	7506.0
683.0	7352.0
682.9	7363.0
682.8	7322.0
682.7	7263.0
682.6	7319.0
682.5	7258.0
682.4	7332.0
682.3	7294.0
682.2	7302.0
682.1	7326.0
682.0	7377.0
681.9	7277.0
681.8	7190.0
681.7	7219.0
681.6	7252.0
681.5	7264.0
681.4	7264.0
681.3	7331.0
681.2	7313.0
681.1	7196.0
681.0	7243.0
680.9	7290.0
680.8	7387.0
680.7	7279.0
680.6	7287.0
680.5	7277.0
680.4	7225.0
680.3	7129.0
680.2	7347.0
680.1	7291.0
680.0	7310.0
679.9	7330.0
679.8	7188.0
679.7	7309.0
679.6	7327.0
679.5	7248.0
679.4	7355.0
679.3	7262.0
679.2	7151.0
679.1	7248.0
679.0	7225.0
678.9	7095.0
678.8	7166.0
678.7	7276.0
678.6	7301.0
678.5	7131.0
678.4	7295.0
678.3	7324.0
678.2	7303.0
678.1	7273.0
678.0	7163.0
677.9	7298.0
677.8	7166.0
677.7	7087.0
677.6	7276.0
677.5	7323.0
677.4	7211.0
677.3	7350.0
677.2	7199.0
677.1	7190.0
677.0	7225.0
676.9	7289.0
676.8	7370.0
676.7	7424.0
676.6	7249.0
676.5	7221.0
676.4	7212.0
676.3	7330.0
676.2	7488.0
676.1	7313.0
676.0	7291.0
675.9	7197.0
675.8	7220.0
675.7	7234.0
675.6	7267.0
675.5	7348.0
675.4	7243.0
675.3	7295.0
675.2	7246.0
675.1	7223.0
675.0	7237.0

File: MX-UT 0p1 20Ap location M1 in image_MXUT0p120ApO1s_O1s.txt
BE/eV	PE: 20.0 eV
540.0	9423.0
539.9	9507.0
539.8	9428.0
539.7	9537.0
539.6	9341.0
539.5	9530.0
539.4	9609.0
539.3	9447.0
539.2	9378.0
539.1	9441.0
539.0	9406.0
538.9	9357.0
538.8	9543.0
538.7	9571.0
538.6	9467.0
538.5	9431.0
538.4	9391.0
538.3	9438.0
538.2	9309.0
538.1	9328.0
538.0	9458.0
537.9	9511.0
537.8	9388.0
537.7	9415.0
537.6	9393.0
537.5	9425.0
537.4	9289.0
537.3	9451.0
537.2	9508.0
537.1	9454.0
537.0	9379.0
536.9	9574.0
536.8	9506.0
536.7	9442.0
536.6	9482.0
536.5	9552.0
536.4	9487.0
536.3	9541.0
536.2	9443.0
536.1	9563.0
536.0	9597.0
535.9	9379.0
535.8	9378.0
535.7	9500.0
535.6	9478.0
535.5	9654.0
535.4	9488.0
535.3	9644.0
535.2	9553.0
535.1	9676.0
535.0	9661.0
534.9	9626.0
534.8	9609.0
534.7	9589.0
534.6	9642.0
534.5	9650.0
534.4	9648.0
534.3	9672.0
534.2	9939.0
534.1	9940.0
534.0	9961.0
533.9	10088.0
533.8	10155.0
533.7	10249.0
533.6	10302.0
533.5	10462.0
533.4	10492.0
533.3	10639.0
533.2	10820.0
533.1	10922.0
533.0	10960.0
532.9	11174.0
532.8	11323.0
532.7	11327.0
532.6	11528.0
532.5	11375.0
532.4	11583.0
532.3	11752.0
532.2	11575.0
532.1	11685.0
532.0	11766.0
531.9	11873.0
531.8	11906.0
531.7	11719.0
531.6	11671.0
531.5	11753.0
531.4	11728.0
531.3	11620.0
531.2	11543.0
531.1	11321.0
531.0	11172.0
530.9	11199.0
530.8	11072.0
530.7	10913.0
530.6	10881.0
530.5	10747.0
530.4	10744.0
530.3	10855.0
530.2	10704.0
530.1	10789.0
530.0	11080.0
529.9	11136.0
529.8	11343.0
529.7	11695.0
529.6	12016.0
529.5	12226.0
529.4	12589.0
529.3	12497.0
529.2	12251.0
529.1	11959.0
529.0	11300.0
528.9	10678.0
528.8	10197.0
528.7	9885.0
528.6	9735.0
528.5	9598.0
528.4	9463.0
528.3	9542.0
528.2	9435.0
528.1	9407.0
528.0	9305.0
527.9	9380.0
527.8	9352.0
527.7	9292.0
527.6	9291.0
527.5	9297.0
527.4	9071.0
527.3	9181.0
527.2	9107.0
527.1	9259.0
527.0	9225.0
526.9	9384.0
526.8	9375.0
526.7	9283.0
526.6	9330.0
526.5	9337.0
526.4	9302.0
526.3	9223.0
526.2	9246.0
526.1	9222.0
526.0	9236.0
525.9	9358.0
525.8	9281.0
525.7	9287.0
525.6	9410.0
525.5	9239.0
525.4	9244.0
525.3	9221.0
525.2	9426.0
525.1	9350.0
525.0	9306.0

File: MX-UT 0p1 20Ap location M1 in image_MXUT0p120ApTi2p_Ti2p.txt
BE/eV	PE: 20.0 eV
470.0	14476.0
469.9	14476.0
469.8	14584.0
469.7	14494.0
469.6	14297.0
469.5	14291.0
469.4	14243.0
469.3	14296.0
469.2	14536.0
469.1	14446.0
469.0	14395.0
468.9	14440.0
468.8	14333.0
468.7	14388.0
468.6	14291.0
468.5	14336.0
468.4	14317.0
468.3	14229.0
468.2	14410.0
468.1	14260.0
468.0	14195.0
467.9	14060.0
467.8	14032.0
467.7	14351.0
467.6	14323.0
467.5	14242.0
467.4	14317.0
467.3	14347.0
467.2	14236.0
467.1	14411.0
467.0	14406.0
466.9	14296.0
466.8	14252.0
466.7	14114.0
466.6	14075.0
466.5	14229.0
466.4	14230.0
466.3	14187.0
466.2	14017.0
466.1	14149.0
466.0	14232.0
465.9	14111.0
465.8	14240.0
465.7	14146.0
465.6	13956.0
465.5	14196.0
465.4	14139.0
465.3	14162.0
465.2	14305.0
465.1	14234.0
465.0	14107.0
464.9	14191.0
464.8	14140.0
464.7	14437.0
464.6	14440.0
464.5	14421.0
464.4	14451.0
464.3	14676.0
464.2	14554.0
464.1	14504.0
464.0	14528.0
463.9	14687.0
463.8	14834.0
463.7	14872.0
463.6	15006.0
463.5	14957.0
463.4	15102.0
463.3	15354.0
463.2	15466.0
463.1	15513.0
463.0	15449.0
462.9	15616.0
462.8	15769.0
462.7	15814.0
462.6	16150.0
462.5	16164.0
462.4	16201.0
462.3	16257.0
462.2	16472.0
462.1	16602.0
462.0	16795.0
461.9	16811.0
461.8	17016.0
461.7	17059.0
461.6	17394.0
461.5	17401.0
461.4	17433.0
461.3	17469.0
461.2	17647.0
461.1	17752.0
461.0	17795.0
460.9	17632.0
460.8	17698.0
460.7	17491.0
460.6	17199.0
460.5	16844.0
460.4	16619.0
460.3	16507.0
460.2	16149.0
460.1	15775.0
460.0	15426.0
459.9	15178.0
459.8	14844.0
459.7	14816.0
459.6	14778.0
459.5	14727.0
459.4	14746.0
459.3	14641.0
459.2	14608.0
459.1	14494.0
459.0	14570.0
458.9	14611.0
458.8	14673.0
458.7	14833.0
458.6	14876.0
458.5	14839.0
458.4	14924.0
458.3	15077.0
458.2	14878.0
458.1	14874.0
458.0	14963.0
457.9	15183.0
457.8	15255.0
457.7	15450.0
457.6	15516.0
457.5	15752.0
457.4	15809.0
457.3	16112.0
457.2	16236.0
457.1	16689.0
457.0	16901.0
456.9	17069.0
456.8	17319.0
456.7	17425.0
456.6	17963.0
456.5	18142.0
456.4	18670.0
456.3	19197.0
456.2	19230.0
456.1	19488.0
456.0	19950.0
455.9	20272.0
455.8	20408.0
455.7	20702.0
455.6	21115.0
455.5	21489.0
455.4	21564.0
455.3	21873.0
455.2	22120.0
455.1	22159.0
455.0	21996.0
454.9	21779.0
454.8	21541.0
454.7	21680.0
454.6	21287.0
454.5	20832.0
454.4	19868.0
454.3	18245.0
454.2	16150.0
454.1	14305.0
454.0	13159.0
453.9	12387.0
453.8	11879.0
453.7	11715.0
453.6	11522.0
453.5	11625.0
453.4	11510.0
453.3	11426.0
453.2	11364.0
453.1	11337.0
453.0	11325.0
452.9	11296.0
452.8	11248.0
452.7	11206.0
452.6	11113.0
452.5	11035.0
452.4	11128.0
452.3	11051.0
452.2	11078.0
452.1	11067.0
452.0	11063.0
451.9	11147.0
451.8	11122.0
451.7	10977.0
451.6	11161.0
451.5	11178.0
451.4	10929.0
451.3	11108.0
451.2	11149.0
451.1	10957.0
451.0	10914.0
450.9	10987.0
450.8	11033.0
450.7	11007.0
450.6	11100.0
450.5	11078.0
450.4	11067.0
450.3	11176.0
450.2	11095.0
450.1	11141.0
450.0	11032.0

File: MX-UT 0p1 20Ap location M1 in image_MXUT0p120ApTi2s_Ti2s.txt
BE/eV	PE: 20.0 eV
579.0	10364.0
578.8	10447.0
578.6	10463.0
578.4	10605.0
578.2	10526.0
578.0	10519.0
577.8	10401.0
577.6	10367.0
577.4	10470.0
577.2	10371.0
577.0	10408.0
576.8	10295.0
576.6	10522.0
576.4	10475.0
576.2	10503.0
576.0	10297.0
575.8	10494.0
575.6	10421.0
575.4	10370.0
575.2	10482.0
575.0	10322.0
574.8	10449.0
574.6	10487.0
574.4	10328.0
574.2	10528.0
574.0	10518.0
573.8	10375.0
573.6	10317.0
573.4	10548.0
573.2	10393.0
573.0	10352.0
572.8	10356.0
572.6	10511.0
572.4	10393.0
572.2	10374.0
572.0	10386.0
571.8	10366.0
571.6	10380.0
571.4	10218.0
571.2	10277.0
571.0	10397.0
570.8	10449.0
570.6	10197.0
570.4	10364.0
570.2	10312.0
570.0	10299.0
569.8	10342.0
569.6	10335.0
569.4	10344.0
569.2	10364.0
569.0	10292.0
568.8	10322.0
568.6	10554.0
568.4	10423.0
568.2	10339.0
568.0	10391.0
567.8	10442.0
567.6	10403.0
567.4	10321.0
567.2	10590.0
567.0	10680.0
566.8	10389.0
566.6	10569.0
566.4	10594.0
566.2	10697.0
566.0	10510.0
565.8	10566.0
565.6	10589.0
565.4	10648.0
565.2	10675.0
565.0	10771.0
564.8	10599.0
564.6	10880.0
564.4	10979.0
564.2	10717.0
564.0	10946.0
563.8	10924.0
563.6	10939.0
563.4	11221.0
563.2	11034.0
563.0	11262.0
562.8	11021.0
562.6	11364.0
562.4	11285.0
562.2	11117.0
562.0	11242.0
561.8	11382.0
561.6	11144.0
561.4	11213.0
561.2	11126.0
561.0	10923.0
560.8	10946.0
560.6	11109.0
560.4	10970.0
560.2	10614.0
560.0	10714.0
559.8	10763.0
559.6	10527.0
559.4	10464.0
559.2	10613.0
559.0	10426.0
558.8	10426.0
558.6	10343.0
558.4	10324.0
558.2	10222.0
558.0	10225.0
557.8	10107.0
557.6	10047.0
557.4	10002.0
557.2	10120.0
557.0	10059.0
556.8	10133.0
556.6	9965.0
556.4	10054.0
556.2	9941.0
556.0	10000.0
555.8	10120.0
555.6	9995.0
555.4	9963.0
555.2	9987.0
555.0	9917.0
554.8	10031.0
554.6	10027.0
554.4	9993.0
554.2	9870.0
554.0	9929.0
553.8	9869.0
553.6	9882.0
553.4	9969.0
553.2	9954.0
553.0	9816.0
552.8	9822.0
552.6	9903.0
552.4	9953.0
552.2	9913.0
552.0	10001.0
551.8	9782.0
551.6	9740.0
551.4	9681.0
551.2	9748.0
551.0	9719.0
550.8	9936.0
550.6	9849.0
550.4	9917.0
550.2	9720.0
550.0	9747.0
549.8	9761.0
549.6	9760.0
549.4	9879.0
549.2	9937.0
549.0	9645.0

File: MX-UT 0p1 20Ap location M1 in image_MXUT0p120ApTi3p_Ti3p.txt
BE/eV	PE: 20.0 eV
49.0	378.0
48.8	350.0
48.6	347.0
48.4	338.0
48.2	381.0
48.0	360.0
47.8	369.0
47.6	368.0
47.4	349.0
47.2	379.0
47.0	342.0
46.8	332.0
46.6	352.0
46.4	355.0
46.2	363.0
46.0	339.0
45.8	352.0
45.6	325.0
45.4	314.0
45.2	330.0
45.0	322.0
44.8	298.0
44.6	325.0
44.4	324.0
44.2	324.0
44.0	311.0
43.8	289.0
43.6	312.0
43.4	294.0
43.2	334.0
43.0	310.0
42.8	308.0
42.6	326.0
42.4	319.0
42.2	300.0
42.0	304.0
41.8	321.0
41.6	322.0
41.4	321.0
41.2	312.0
41.0	316.0
40.8	332.0
40.6	333.0
40.4	345.0
40.2	339.0
40.0	313.0
39.8	346.0
39.6	387.0
39.4	345.0
39.2	364.0
39.0	344.0
38.8	342.0
38.6	385.0
38.4	405.0
38.2	391.0
38.0	409.0
37.8	417.0
37.6	427.0
37.4	443.0
37.2	483.0
37.0	449.0
36.8	476.0
36.6	490.0
36.4	561.0
36.2	563.0
36.0	618.0
35.8	597.0
35.6	733.0
35.4	711.0
35.2	706.0
35.0	736.0
34.8	792.0
34.6	756.0
34.4	802.0
34.2	775.0
34.0	739.0
33.8	714.0
33.6	652.0
33.4	560.0
33.2	459.0
33.0	372.0
32.8	299.0
32.6	278.0
32.4	254.0
32.2	217.0
32.0	205.0
31.8	203.0
31.6	206.0
31.4	204.0
31.2	199.0
31.0	207.0
30.8	216.0
30.6	180.0
30.4	209.0
30.2	204.0
30.0	186.0
29.8	227.0
29.6	202.0
29.4	230.0
29.2	214.0
29.0	234.0
28.8	227.0
28.6	205.0
28.4	174.0
28.2	183.0
28.0	172.0
27.8	165.0
27.6	172.0
27.4	162.0
27.2	164.0
27.0	165.0
26.8	181.0
26.6	151.0
26.4	167.0
26.2	149.0
26.0	158.0
25.8	179.0
25.6	158.0
25.4	194.0
25.2	147.0
25.0	158.0
24.8	186.0
24.6	156.0
24.4	180.0
24.2	157.0
24.0	169.0
23.8	152.0
23.6	182.0
23.4	165.0
23.2	171.0
23.0	177.0
22.8	197.0
22.6	190.0
22.4	199.0
22.2	226.0
22.0	239.0
21.8	220.0
21.6	245.0
21.4	258.0
21.2	282.0
21.0	266.0
20.8	264.0
20.6	258.0
20.4	267.0
20.2	254.0
20.0	273.0
19.8	259.0
19.6	271.0
19.4	266.0
19.2	264.0
19.0	277.0

File: MX-UT 0p1 20Ap location M1 in image_MXUT0p120ApTi3s_Ti3s.txt
BE/eV	PE: 20.0 eV
74.0	404.0
73.8	378.0
73.6	400.0
73.4	383.0
73.2	403.0
73.0	382.0
72.8	353.0
72.6	369.0
72.4	381.0
72.2	345.0
72.0	401.0
71.8	377.0
71.6	414.0
71.4	389.0
71.2	363.0
71.0	347.0
70.8	368.0
70.6	348.0
70.4	354.0
70.2	360.0
70.0	367.0
69.8	368.0
69.6	346.0
69.4	358.0
69.2	365.0
69.0	359.0
68.8	345.0
68.6	408.0
68.4	389.0
68.2	353.0
68.0	372.0
67.8	367.0
67.6	374.0
67.4	349.0
67.2	372.0
67.0	368.0
66.8	360.0
66.6	390.0
66.4	383.0
66.2	381.0
66.0	373.0
65.8	366.0
65.6	384.0
65.4	367.0
65.2	362.0
65.0	343.0
64.8	369.0
64.6	381.0
64.4	361.0
64.2	397.0
64.0	407.0
63.8	397.0
63.6	418.0
63.4	399.0
63.2	425.0
63.0	405.0
62.8	425.0
62.6	426.0
62.4	451.0
62.2	443.0
62.0	483.0
61.8	512.0
61.6	486.0
61.4	509.0
61.2	509.0
61.0	514.0
60.8	515.0
60.6	542.0
60.4	565.0
60.2	596.0
60.0	605.0
59.8	609.0
59.6	586.0
59.4	595.0
59.2	582.0
59.0	607.0
58.8	537.0
58.6	517.0
58.4	508.0
58.2	501.0
58.0	485.0
57.8	479.0
57.6	400.0
57.4	411.0
57.2	403.0
57.0	399.0
56.8	400.0
56.6	389.0
56.4	390.0
56.2	355.0
56.0	369.0
55.8	347.0
55.6	371.0
55.4	342.0
55.2	363.0
55.0	376.0
54.8	326.0
54.6	365.0
54.4	343.0
54.2	364.0
54.0	334.0
53.8	352.0
53.6	338.0
53.4	332.0
53.2	348.0
53.0	358.0
52.8	334.0
52.6	327.0
52.4	352.0
52.2	361.0
52.0	332.0
51.8	345.0
51.6	334.0
51.4	347.0
51.2	334.0
51.0	369.0
50.8	336.0
50.6	359.0
50.4	340.0
50.2	362.0
50.0	364.0
49.8	354.0
49.6	332.0
49.4	381.0
49.2	335.0
49.0	369.0
48.8	383.0
48.6	374.0
48.4	351.0
48.2	350.0
48.0	332.0
47.8	317.0
47.6	338.0
47.4	350.0
47.2	351.0
47.0	327.0
46.8	387.0
46.6	359.0
46.4	324.0
46.2	301.0
46.0	330.0
45.8	337.0
45.6	329.0
45.4	298.0
45.2	357.0
45.0	307.0
44.8	321.0
44.6	340.0
44.4	341.0
44.2	343.0
44.0	317.0

File: MX-UT 0p1 20Ap location M1 in image_MXUT0p120Apwide_wide.txt
BE/eV	PE: 160.0 eV
1200.0	36440.0
1195.0	36525.0
1190.0	36831.0
1185.0	37386.0
1180.0	37594.0
1175.0	38452.0
1170.0	38656.0
1165.0	38748.0
1160.0	39262.0
1155.0	39669.0
1150.0	40228.0
1145.0	40264.0
1140.0	40409.0
1135.0	40936.0
1130.0	41656.0
1125.0	42127.0
1120.0	41622.0
1115.0	41422.0
1110.0	42194.0
1105.0	45270.0
1100.0	44110.0
1095.0	38046.0
1090.0	36047.0
1085.0	35634.0
1080.0	35609.0
1075.0	36187.0
1070.0	38968.0
1065.0	37020.0
1060.0	34448.0
1055.0	34124.0
1050.0	34004.0
1045.0	34422.0
1040.0	34691.0
1035.0	35562.0
1030.0	35083.0
1025.0	35302.0
1020.0	35534.0
1015.0	35867.0
1010.0	36006.0
1005.0	36343.0
1000.0	36917.0
995.0	37154.0
990.0	37137.0
985.0	37206.0
980.0	37356.0
975.0	39428.0
970.0	38325.0
965.0	36011.0
960.0	35499.0
955.0	35606.0
950.0	36076.0
945.0	35711.0
940.0	36080.0
935.0	36439.0
930.0	36387.0
925.0	36809.0
920.0	36697.0
915.0	37267.0
910.0	37446.0
905.0	37442.0
900.0	37869.0
895.0	38116.0
890.0	38071.0
885.0	38476.0
880.0	39230.0
875.0	38963.0
870.0	39019.0
865.0	39166.0
860.0	39740.0
855.0	40476.0
850.0	39642.0
845.0	40063.0
840.0	39386.0
835.0	40270.0
830.0	41848.0
825.0	39911.0
820.0	39295.0
815.0	39635.0
810.0	39572.0
805.0	39611.0
800.0	39878.0
795.0	40155.0
790.0	40149.0
785.0	39942.0
780.0	40457.0
775.0	40854.0
770.0	40676.0
765.0	40939.0
760.0	41266.0
755.0	41292.0
750.0	41712.0
745.0	41826.0
740.0	41795.0
735.0	42217.0
730.0	42552.0
725.0	42547.0
720.0	42804.0
715.0	42824.0
710.0	43517.0
705.0	43163.0
700.0	43119.0
695.0	43054.0
690.0	43590.0
685.0	51762.0
680.0	42906.0
675.0	42799.0
670.0	43565.0
665.0	43542.0
660.0	43597.0
655.0	43504.0
650.0	44422.0
645.0	44324.0
640.0	44508.0
635.0	44600.0
630.0	45000.0
625.0	44668.0
620.0	45321.0
615.0	45697.0
610.0	45993.0
605.0	46268.0
600.0	46184.0
595.0	46154.0
590.0	47508.0
585.0	47941.0
580.0	47530.0
575.0	47967.0
570.0	47540.0
565.0	49294.0
560.0	50096.0
555.0	45693.0
550.0	45256.0
545.0	44994.0
540.0	44409.0
535.0	45434.0
530.0	52779.0
525.0	43645.0
520.0	43868.0
515.0	43820.0
510.0	44404.0
505.0	45026.0
500.0	44626.0
495.0	44377.0
490.0	45044.0
485.0	46142.0
480.0	47190.0
475.0	47084.0
470.0	46151.0
465.0	46441.0
460.0	51989.0
455.0	62636.0
450.0	34718.0
445.0	34586.0
440.0	34480.0
435.0	34674.0
430.0	34477.0
425.0	34944.0
420.0	35262.0
415.0	35079.0
410.0	35073.0
405.0	35058.0
400.0	36004.0
395.0	35807.0
390.0	35474.0
385.0	35610.0
380.0	35767.0
375.0	36384.0
370.0	36492.0
365.0	36372.0
360.0	36393.0
355.0	36767.0
350.0	37578.0
345.0	37347.0
340.0	37228.0
335.0	36459.0
330.0	35440.0
325.0	36765.0
320.0	39616.0
315.0	41396.0
310.0	39838.0
305.0	31815.0
300.0	23372.0
295.0	22254.0
290.0	33632.0
285.0	112525.0
280.0	7789.0
275.0	3242.0
270.0	3539.0
265.0	2842.0
260.0	2834.0
255.0	2849.0
250.0	2846.0
245.0	2846.0
240.0	2910.0
235.0	2868.0
230.0	2906.0
225.0	2981.0
220.0	2996.0
215.0	2975.0
210.0	2900.0
205.0	2906.0
200.0	3704.0
195.0	2883.0
190.0	2976.0
185.0	2854.0
180.0	2932.0
175.0	2937.0
170.0	3005.0
165.0	3053.0
160.0	3083.0
155.0	2996.0
150.0	3138.0
145.0	3087.0
140.0	3098.0
135.0	3149.0
130.0	3179.0
125.0	3226.0
120.0	3231.0
115.0	3323.0
110.0	3295.0
105.0	3380.0
100.0	3434.0
95.0	3392.0
90.0	3535.0
85.0	3632.0
80.0	3768.0
75.0	3692.0
70.0	3462.0
65.0	3509.0
60.0	5002.0
55.0	3384.0
50.0	3277.0
45.0	3296.0
40.0	3272.0
35.0	5910.0
30.0	2006.0
25.0	1634.0
20.0	2554.0
15.0	2251.0
10.0	1554.0
5.0	1008.0
0.0	119.0
-5.0	4.0

File: MX-UT 0p5 20Ap location U1 in image-0.6287_MXUT0p520ApC1s_C1s.txt
BE/eV	PE: 20.0 eV
295.0	752.0
294.9	748.0
294.8	760.0
294.7	745.0
294.6	733.0
294.5	747.0
294.4	772.0
294.3	787.0
294.2	801.0
294.1	845.0
294.0	795.0
293.9	828.0
293.8	824.0
293.7	783.0
293.6	792.0
293.5	782.0
293.4	783.0
293.3	805.0
293.2	821.0
293.1	803.0
293.0	804.0
292.9	823.0
292.8	782.0
292.7	817.0
292.6	837.0
292.5	829.0
292.4	854.0
292.3	881.0
292.2	913.0
292.1	859.0
292.0	922.0
291.9	940.0
291.8	913.0
291.7	918.0
291.6	959.0
291.5	931.0
291.4	996.0
291.3	1036.0
291.2	1077.0
291.1	1082.0
291.0	1078.0
290.9	1146.0
290.8	1060.0
290.7	1111.0
290.6	1128.0
290.5	1132.0
290.4	1156.0
290.3	1121.0
290.2	1152.0
290.1	1172.0
290.0	1152.0
289.9	1103.0
289.8	1120.0
289.7	1103.0
289.6	1103.0
289.5	1070.0
289.4	1031.0
289.3	1040.0
289.2	1031.0
289.1	1053.0
289.0	1051.0
288.9	1086.0
288.8	1046.0
288.7	980.0
288.6	996.0
288.5	1017.0
288.4	1016.0
288.3	1018.0
288.2	985.0
288.1	1016.0
288.0	1014.0
287.9	1046.0
287.8	1045.0
287.7	1060.0
287.6	1087.0
287.5	1121.0
287.4	1056.0
287.3	1087.0
287.2	1106.0
287.1	1110.0
287.0	1179.0
286.9	1159.0
286.8	1207.0
286.7	1241.0
286.6	1279.0
286.5	1293.0
286.4	1404.0
286.3	1497.0
286.2	1501.0
286.1	1597.0
286.0	1628.0
285.9	1667.0
285.8	1760.0
285.7	1773.0
285.6	1963.0
285.5	1907.0
285.4	2098.0
285.3	2190.0
285.2	2341.0
285.1	2492.0
285.0	2685.0
284.9	2917.0
284.8	3365.0
284.7	3788.0
284.6	4275.0
284.5	5145.0
284.4	6515.0
284.3	8704.0
284.2	11668.0
284.1	15457.0
284.0	19016.0
283.9	21076.0
283.8	18906.0
283.7	14300.0
283.6	9016.0
283.5	5126.0
283.4	3091.0
283.3	2020.0
283.2	1402.0
283.1	1070.0
283.0	875.0
282.9	711.0
282.8	600.0
282.7	495.0
282.6	438.0
282.5	400.0
282.4	392.0
282.3	363.0
282.2	352.0
282.1	358.0
282.0	372.0
281.9	396.0
281.8	440.0
281.7	550.0
281.6	691.0
281.5	899.0
281.4	1001.0
281.3	1020.0
281.2	898.0
281.1	645.0
281.0	448.0
280.9	302.0
280.8	254.0
280.7	194.0
280.6	192.0
280.5	149.0
280.4	156.0
280.3	161.0
280.2	181.0
280.1	140.0
280.0	139.0
279.9	143.0
279.8	162.0
279.7	166.0
279.6	141.0
279.5	129.0
279.4	146.0
279.3	153.0
279.2	137.0
279.1	140.0
279.0	122.0
278.9	117.0
278.8	133.0
278.7	126.0
278.6	110.0
278.5	126.0
278.4	128.0
278.3	139.0
278.2	141.0
278.1	144.0
278.0	125.0
277.9	114.0
277.8	118.0
277.7	126.0
277.6	141.0
277.5	115.0
277.4	123.0
277.3	137.0
277.2	121.0
277.1	117.0
277.0	134.0

File: MX-UT 0p5 20Ap location U1 in image-0.6287_MXUT0p520ApCl2p_Cl2p.txt
BE/eV	PE: 20.0 eV
208.0	876.0
207.9	882.0
207.8	832.0
207.7	861.0
207.6	855.0
207.5	862.0
207.4	842.0
207.3	885.0
207.2	898.0
207.1	860.0
207.0	851.0
206.9	837.0
206.8	863.0
206.7	885.0
206.6	812.0
206.5	853.0
206.4	840.0
206.3	817.0
206.2	869.0
206.1	885.0
206.0	883.0
205.9	856.0
205.8	903.0
205.7	865.0
205.6	834.0
205.5	868.0
205.4	862.0
205.3	898.0
205.2	870.0
205.1	888.0
205.0	909.0
204.9	881.0
204.8	860.0
204.7	897.0
204.6	884.0
204.5	863.0
204.4	876.0
204.3	880.0
204.2	886.0
204.1	868.0
204.0	896.0
203.9	852.0
203.8	881.0
203.7	880.0
203.6	862.0
203.5	878.0
203.4	882.0
203.3	856.0
203.2	899.0
203.1	921.0
203.0	888.0
202.9	877.0
202.8	890.0
202.7	914.0
202.6	875.0
202.5	849.0
202.4	882.0
202.3	932.0
202.2	872.0
202.1	935.0
202.0	901.0
201.9	919.0
201.8	956.0
201.7	929.0
201.6	972.0
201.5	916.0
201.4	869.0
201.3	920.0
201.2	949.0
201.1	975.0
201.0	991.0
200.9	1004.0
200.8	1088.0
200.7	1117.0
200.6	1196.0
200.5	1267.0
200.4	1336.0
200.3	1339.0
200.2	1335.0
200.1	1290.0
200.0	1210.0
199.9	1153.0
199.8	1108.0
199.7	1041.0
199.6	1056.0
199.5	1039.0
199.4	1079.0
199.3	1076.0
199.2	1234.0
199.1	1296.0
199.0	1401.0
198.9	1482.0
198.8	1581.0
198.7	1634.0
198.6	1661.0
198.5	1518.0
198.4	1474.0
198.3	1335.0
198.2	1187.0
198.1	1071.0
198.0	1003.0
197.9	970.0
197.8	906.0
197.7	911.0
197.6	902.0
197.5	840.0
197.4	862.0
197.3	821.0
197.2	805.0
197.1	858.0
197.0	872.0
196.9	839.0
196.8	864.0
196.7	875.0
196.6	866.0
196.5	901.0
196.4	868.0
196.3	846.0
196.2	861.0
196.1	868.0
196.0	875.0
195.9	809.0
195.8	795.0
195.7	794.0
195.6	797.0
195.5	865.0
195.4	915.0
195.3	877.0
195.2	818.0
195.1	844.0
195.0	874.0

File: MX-UT 0p5 20Ap location U1 in image-0.6287_MXUT0p520ApF1s_F1s.txt
BE/eV	PE: 20.0 eV
695.0	7955.0
694.9	8189.0
694.8	8097.0
694.7	8056.0
694.6	7951.0
694.5	8013.0
694.4	8143.0
694.3	8133.0
694.2	8120.0
694.1	8098.0
694.0	7987.0
693.9	8147.0
693.8	8207.0
693.7	8067.0
693.6	8127.0
693.5	8114.0
693.4	7997.0
693.3	8031.0
693.2	8098.0
693.1	8123.0
693.0	8024.0
692.9	8005.0
692.8	8119.0
692.7	8184.0
692.6	8167.0
692.5	8019.0
692.4	8094.0
692.3	8062.0
692.2	8167.0
692.1	8190.0
692.0	8038.0
691.9	7999.0
691.8	8003.0
691.7	8066.0
691.6	8155.0
691.5	8162.0
691.4	8071.0
691.3	8115.0
691.2	7963.0
691.1	8056.0
691.0	8015.0
690.9	8118.0
690.8	8070.0
690.7	8073.0
690.6	8041.0
690.5	8099.0
690.4	8044.0
690.3	8165.0
690.2	8095.0
690.1	8153.0
690.0	8128.0
689.9	8113.0
689.8	8170.0
689.7	8108.0
689.6	8076.0
689.5	8080.0
689.4	8231.0
689.3	8182.0
689.2	8162.0
689.1	8187.0
689.0	8113.0
688.9	8130.0
688.8	8064.0
688.7	8213.0
688.6	8240.0
688.5	8082.0
688.4	7984.0
688.3	8037.0
688.2	8171.0
688.1	8171.0
688.0	8162.0
687.9	8165.0
687.8	8176.0
687.7	8241.0
687.6	8241.0
687.5	8210.0
687.4	8364.0
687.3	8348.0
687.2	8286.0
687.1	8370.0
687.0	8435.0
686.9	8438.0
686.8	8330.0
686.7	8266.0
686.6	8392.0
686.5	8552.0
686.4	8465.0
686.3	8550.0
686.2	8457.0
686.1	8741.0
686.0	8717.0
685.9	8742.0
685.8	8863.0
685.7	9001.0
685.6	9268.0
685.5	9172.0
685.4	9202.0
685.3	9533.0
685.2	9846.0
685.1	10369.0
685.0	10822.0
684.9	11136.0
684.8	11781.0
684.7	12137.0
684.6	12390.0
684.5	12662.0
684.4	12299.0
684.3	12053.0
684.2	11585.0
684.1	10980.0
684.0	10241.0
683.9	9762.0
683.8	9384.0
683.7	8978.0
683.6	8712.0
683.5	8678.0
683.4	8503.0
683.3	8379.0
683.2	8282.0
683.1	8225.0
683.0	8262.0
682.9	8093.0
682.8	8086.0
682.7	7990.0
682.6	8070.0
682.5	7976.0
682.4	7924.0
682.3	8151.0
682.2	8189.0
682.1	8006.0
682.0	8087.0
681.9	8070.0
681.8	8052.0
681.7	7992.0
681.6	7992.0
681.5	7937.0
681.4	7976.0
681.3	8034.0
681.2	7925.0
681.1	7946.0
681.0	8058.0
680.9	8098.0
680.8	8068.0
680.7	8029.0
680.6	8070.0
680.5	8100.0
680.4	8005.0
680.3	7926.0
680.2	7893.0
680.1	8014.0
680.0	7855.0
679.9	7812.0
679.8	7942.0
679.7	8034.0
679.6	8037.0
679.5	8043.0
679.4	8075.0
679.3	8072.0
679.2	7987.0
679.1	8065.0
679.0	7985.0
678.9	7928.0
678.8	8007.0
678.7	7987.0
678.6	7981.0
678.5	7947.0
678.4	7922.0
678.3	7957.0
678.2	7934.0
678.1	7912.0
678.0	7893.0
677.9	7824.0
677.8	7843.0
677.7	8004.0
677.6	7923.0
677.5	7816.0
677.4	8024.0
677.3	8021.0
677.2	7963.0
677.1	7978.0
677.0	7986.0
676.9	8027.0
676.8	8034.0
676.7	7991.0
676.6	8031.0
676.5	8107.0
676.4	8009.0
676.3	8074.0
676.2	7993.0
676.1	7966.0
676.0	8117.0
675.9	8014.0
675.8	8056.0
675.7	7963.0
675.6	8018.0
675.5	8063.0
675.4	7917.0
675.3	7948.0
675.2	7976.0
675.1	8057.0
675.0	8105.0

File: MX-UT 0p5 20Ap location U1 in image-0.6287_MXUT0p520ApTi3s_Ti3s.txt
BE/eV	PE: 20.0 eV
74.0	454.0
73.8	413.0
73.6	411.0
73.4	469.0
73.2	439.0
73.0	430.0
72.8	439.0
72.6	475.0
72.4	419.0
72.2	450.0
72.0	464.0
71.8	445.0
71.6	447.0
71.4	468.0
71.2	419.0
71.0	462.0
70.8	412.0
70.6	483.0
70.4	432.0
70.2	422.0
70.0	428.0
69.8	404.0
69.6	398.0
69.4	445.0
69.2	415.0
69.0	414.0
68.8	445.0
68.6	442.0
68.4	439.0
68.2	406.0
68.0	445.0
67.8	393.0
67.6	432.0
67.4	457.0
67.2	437.0
67.0	424.0
66.8	419.0
66.6	424.0
66.4	451.0
66.2	426.0
66.0	423.0
65.8	438.0
65.6	421.0
65.4	437.0
65.2	468.0
65.0	410.0
64.8	422.0
64.6	433.0
64.4	445.0
64.2	453.0
64.0	439.0
63.8	437.0
63.6	476.0
63.4	471.0
63.2	493.0
63.0	475.0
62.8	485.0
62.6	528.0
62.4	578.0
62.2	511.0
62.0	570.0
61.8	571.0
61.6	561.0
61.4	585.0
61.2	592.0
61.0	604.0
60.8	648.0
60.6	615.0
60.4	685.0
60.2	680.0
60.0	689.0
59.8	692.0
59.6	740.0
59.4	722.0
59.2	752.0
59.0	753.0
58.8	713.0
58.6	663.0
58.4	622.0
58.2	624.0
58.0	600.0
57.8	567.0
57.6	533.0
57.4	491.0
57.2	475.0
57.0	493.0
56.8	454.0
56.6	435.0
56.4	446.0
56.2	459.0
56.0	473.0
55.8	426.0
55.6	420.0
55.4	442.0
55.2	454.0
55.0	443.0
54.8	444.0
54.6	442.0
54.4	420.0
54.2	401.0
54.0	432.0
53.8	429.0
53.6	389.0
53.4	407.0
53.2	395.0
53.0	427.0
52.8	420.0
52.6	395.0
52.4	427.0
52.2	408.0
52.0	414.0
51.8	400.0
51.6	406.0
51.4	389.0
51.2	441.0
51.0	396.0
50.8	425.0
50.6	399.0
50.4	415.0
50.2	412.0
50.0	415.0
49.8	410.0
49.6	408.0
49.4	407.0
49.2	410.0
49.0	411.0
48.8	400.0
48.6	380.0
48.4	419.0
48.2	408.0
48.0	416.0
47.8	418.0
47.6	434.0
47.4	405.0
47.2	404.0
47.0	420.0
46.8	395.0
46.6	408.0
46.4	390.0
46.2	357.0
46.0	396.0
45.8	401.0
45.6	430.0
45.4	381.0
45.2	399.0
45.0	383.0
44.8	413.0
44.6	366.0
44.4	366.0
44.2	367.0
44.0	376.0