Folder: python_code_MXene_VRFB/XPS/LG4X-result (part 15)

File: UT-3-C1s.csv
#No of rows lightened (2D detector)1(if not using 2D detector, value is 1 and can be ignored!)
raw_x,raw_y,corrected x,data-bg,sum_components,bg,sum_fit,C=C,pi-pi,pi-pi2,C-C,C-O
295.0,721.0,295.6303,0.0,-664.434,721.0,56.5663,16.1452,28.4767,0.631847,0.328619,10.9839
294.8,759.0,295.43,38.1692,-657.635,720.831,63.1962,16.7417,31.1915,3.45428,0.341515,11.4673
294.6,820.0,295.23,99.5804,-644.331,720.42,76.0884,17.3718,34.3242,12.0542,0.355185,11.9831
294.4,792.0,295.03,72.1591,-624.085,719.841,95.7561,18.0381,37.9633,26.8507,0.369695,12.5343
294.2,810.0,294.8303,90.6845,-606.665,719.315,112.65,18.7435,42.2197,38.1776,0.385113,13.1243
294.0,847.0,294.6303,128.338,-603.132,718.662,115.53,19.4912,47.2308,34.6494,0.401518,13.7568
293.8,848.0,294.43,129.985,-609.637,718.015,108.378,20.2845,53.1658,20.0733,0.418996,14.4358
293.6,800.0,294.23,82.6081,-613.008,717.392,104.384,21.1272,60.2297,7.42297,0.437642,15.1661
293.4,795.0,294.03,78.1545,-607.994,716.845,108.851,22.0236,68.6651,1.75215,0.457563,15.953
293.2,808.0,293.8303,91.6193,-597.107,716.381,119.274,22.9783,78.7504,0.263998,0.478878,16.8023
293.0,846.0,293.6303,130.314,-582.651,715.686,133.036,23.9964,90.7912,0.0253902,0.501722,17.7208
292.8,861.0,293.43,146.07,-565.499,714.93,149.431,25.0838,105.103,0.00155871,0.526242,18.7163
292.6,865.0,293.23,150.931,-545.49,714.069,168.579,26.2467,121.982,6.10804e-05,0.55261,19.7974
292.4,880.0,293.03,166.817,-522.47,713.183,190.712,27.4925,141.665,1.52782e-06,0.581014,20.9742
292.2,907.0,292.8303,194.839,-496.191,712.161,215.97,28.8291,164.271,2.43938e-08,0.611671,22.2583
292.0,977.0,292.6303,266.135,-466.542,710.865,244.323,30.2657,189.749,2.48612e-10,0.644826,23.663
291.8,1001.0,292.43,291.701,-433.793,709.299,275.506,31.8123,217.809,1.61734e-12,0.680759,25.2037
291.6,1034.0,292.23,326.379,-398.647,707.621,308.974,33.4807,247.875,6.71604e-15,0.71979,26.8983
291.4,1109.0,292.03,403.464,-361.66,705.536,343.876,35.2838,279.062,1.78017e-17,0.762286,28.7679
291.2,1106.0,291.8303,402.73,-324.204,703.27,379.066,37.2367,310.184,3.01194e-20,0.808672,30.8371
291.0,1201.0,291.6303,500.13,-287.709,700.87,413.162,39.3564,339.811,3.25286e-23,0.859439,33.1351
290.8,1200.0,291.43,501.743,-253.61,698.257,444.647,41.6623,366.373,2.24244e-26,0.915158,35.6962
290.6,1230.0,291.23,534.61,-223.369,695.39,472.021,44.1771,388.305,9.86759e-30,0.976498,38.5617
290.4,1193.0,291.03,500.41,-198.631,692.59,493.959,46.9268,404.207,2.77164e-33,1.04424,41.7809
290.2,1214.0,290.8303,524.22,-180.3,689.78,509.48,49.9414,413.006,4.96934e-37,1.11932,45.4136
290.0,1090.0,290.6303,402.963,-168.957,687.037,518.08,53.2562,414.089,5.68716e-41,1.20284,49.5321
289.8,1159.0,290.43,474.46,-164.726,684.54,519.814,56.9125,407.38,4.15458e-45,1.29612,54.2251
289.6,1166.0,290.23,484.056,-166.633,681.944,515.311,60.9588,393.349,1.93729e-49,1.40074,59.6021
289.4,1137.0,290.03,457.718,-173.559,679.282,505.723,65.4526,372.953,5.76632e-54,1.51864,65.7989
289.2,1122.0,289.8303,445.29,-184.094,676.71,492.616,70.4625,347.516,1.09556e-58,1.65218,72.9857
289.0,1131.0,289.6303,456.764,-196.408,674.236,477.828,76.0707,318.575,1.32865e-63,1.80427,81.3775
288.8,1134.0,289.43,462.353,-208.328,671.647,463.319,82.3764,287.715,1.02854e-68,1.97855,91.2483
288.6,1152.0,289.23,483.009,-217.944,668.991,451.047,89.5004,256.416,5.08237e-74,2.17959,102.951
288.4,1189.0,289.03,522.811,-223.305,666.189,442.884,97.5905,225.939,1.60305e-79,2.41323,116.941
288.2,1166.0,288.8303,502.629,-222.781,663.371,440.59,106.83,197.255,3.22747e-85,2.68699,133.819
288.0,1160.0,288.6303,499.428,-214.721,660.572,445.852,117.446,171.024,4.14776e-91,3.01075,154.371
287.8,1128.0,288.43,470.231,-197.392,657.769,460.377,129.727,147.61,3.40252e-97,3.39765,179.643
287.6,1219.0,288.23,564.102,-168.85,654.898,486.049,144.037,127.127,1.78165e-103,3.86558,211.019
287.4,1284.0,288.03,632.412,-126.484,651.588,525.104,160.847,109.494,5.95499e-110,4.43933,250.324
287.2,1290.0,287.8303,642.03,-67.6393,647.97,580.331,180.765,94.5012,1.2705e-116,5.15426,299.91
287.0,1316.0,287.6303,671.717,10.8901,644.283,655.173,204.591,81.8648,1.73023e-123,6.06239,362.655
286.8,1417.0,287.43,776.899,113.468,640.101,753.569,233.388,71.2712,1.50407e-130,7.2432,441.667
286.6,1498.0,287.23,862.514,243.574,635.486,879.061,268.586,62.4096,8.34578e-138,8.82455,539.24
286.4,1594.0,287.03,963.72,402.173,630.28,1032.45,312.142,54.9931,2.95598e-145,11.0276,654.29
286.2,1774.0,286.8303,1149.74,583.25,624.257,1207.51,366.784,48.7685,6.68302e-153,14.2819,777.672
286.0,1981.0,286.6303,1363.72,769.547,617.283,1386.83,436.414,43.5208,9.64447e-161,19.587,887.308
285.8,2131.0,286.43,1521.75,937.177,609.249,1546.43,526.803,39.0711,8.88423e-169,29.7298,950.822
285.6,2301.0,286.23,1700.82,1078.15,600.18,1678.33,646.866,35.2737,5.22392e-177,52.8281,943.361
285.4,2440.0,286.03,1849.85,1230.31,590.151,1820.46,811.174,32.011,1.96069e-185,109.185,868.086
285.2,2742.0,285.8303,2162.96,1483.54,579.039,2062.58,1045.32,29.1886,4.6974e-194,234.766,753.307
285.0,3093.0,285.6303,2527.06,1949.86,565.935,2515.8,1398.68,26.731,7.18357e-203,460.109,630.278
284.8,3682.0,285.43,3131.96,2726.55,550.036,3276.59,1979.14,24.5777,7.01228e-212,754.552,518.316
284.6,5026.0,285.23,4497.15,3978.39,528.849,4507.24,3067.46,22.6799,4.36932e-221,992.584,424.511
284.4,7615.0,285.03,7117.92,6467.78,497.082,6964.86,5565.41,20.9982,1.73781e-230,1029.49,348.97
284.2,13816.0,284.8303,13374.8,12781.4,441.234,13222.6,12073.8,19.5006,4.41193e-240,840.194,289.092
284.0,23025.0,284.6303,22686.1,22813.3,338.865,23152.2,22346.2,18.1606,7.14972e-250,546.076,241.766
283.8,22477.0,284.43,22270.4,21797.4,206.604,22004,21490.7,16.9566,7.3958e-260,292.138,204.208
283.6,10456.0,284.23,10342,10099.3,113.955,10213.3,9885.19,15.8705,4.88333e-270,138.031,174.177
283.4,3322.0,284.03,3243.47,3421.35,78.5275,3499.88,3270.04,14.8871,2.05818e-280,65.0098,149.942
283.2,1413.0,283.8303,1346.4,1328.59,66.6033,1395.19,1216.26,13.9938,5.53715e-291,34.7389,130.195
283.0,794.0,283.6303,733.15,623.614,60.8504,684.464,535.406,13.1796,9.50876e-302,21.9301,113.948
282.8,470.0,283.43,412.268,329.329,57.7323,387.062,258.572,12.4354,1.04231e-312,15.5984,100.456
282.6,324.0,283.23,268.103,187.644,55.8972,243.541,130.764,11.7533,0.0,11.8734,89.1506
282.4,244.0,283.03,189.376,113.035,54.6244,167.66,67.5215,11.1265,0.0,9.41244,79.5994
282.2,213.0,282.8303,159.335,71.0885,53.6647,124.753,35.0647,10.5491,0.0,7.67233,71.4671
282.0,174.0,282.6303,121.08,46.1095,52.9195,99.0291,18.1335,10.0159,0.0,6.38672,64.4929
281.8,161.0,282.43,108.731,30.4061,52.269,82.6751,9.27487,9.52263,0.0,5.40605,58.4715
281.6,129.0,282.23,77.2514,19.8648,51.7486,71.6134,4.66858,9.06523,0.0,4.63905,53.2405
281.4,135.0,282.03,83.6871,12.3282,51.3129,63.641,2.30404,8.64033,0.0,4.02687,48.6698
281.2,118.0,281.8303,67.0732,6.6141,50.9268,57.5409,1.11165,8.24487,0.0,3.5299,44.6545
281.0,103.0,281.6303,52.4276,2.05696,50.5724,52.6293,0.523145,7.87617,0.0,3.1206,41.1094
280.8,106.0,281.43,55.7191,-1.76507,50.2809,48.5158,0.23969,7.53187,0.0,2.77928,37.965
280.6,89.0,281.23,38.9841,-5.04408,50.0159,44.9718,0.106757,7.20982,0.0,2.49154,35.1637
280.4,82.0,281.03,32.1744,-7.96664,49.8256,41.8589,0.0461645,6.90815,0.0,2.24664,32.658
280.2,74.0,280.8303,24.3418,-10.5691,49.6582,39.0891,0.0193612,6.62516,0.0,2.0364,30.4081
280.0,82.0,280.6303,32.5101,-12.8873,49.4899,36.6025,0.00786818,6.35932,0.0,1.85455,28.3808
279.8,68.0,280.43,18.6174,-15.0262,49.3826,34.3564,0.00309601,6.10928,0.0,1.69615,26.5478
279.6,63.0,280.23,13.7436,-16.9387,49.2564,32.3177,0.00117876,5.87378,0.0,1.55733,24.8854
279.4,58.0,280.03,8.81688,-18.7229,49.1831,30.4603,0.000434006,5.65172,0.0,1.43496,23.3731
279.2,61.0,279.8303,11.9103,-20.3273,49.0897,28.7624,0.000154451,5.4421,0.0,1.32654,21.9936
279.0,54.0,279.6303,4.97894,-21.8151,49.0211,27.2059,5.31027e-05,5.24399,0.0,1.23001,20.7319
278.8,49.0,279.43,0.0,-23.2248,49.0,25.7752,1.7632e-05,5.05656,0.0,1.14368,19.575
278.6,53.0,279.23,4.0,-24.5431,49.0,24.4569,5.65192e-06,4.87905,0.0,1.06617,18.5117
278.4,53.0,279.03,4.0,-25.7607,49.0,23.2393,1.74848e-06,4.71078,0.0,0.996309,17.5322
278.2,61.0,278.8303,12.0,-26.8878,49.0,22.1122,5.21883e-07,4.5511,0.0,0.933117,16.628
278.0,54.0,278.6303,5.0,-27.9332,49.0,21.0668,1.50254e-07,4.39945,0.0,0.87577,15.7916
277.8,63.0,278.43,14.0,-28.9047,49.0,20.0953,4.17173e-08,4.25528,0.0,0.823567,15.0165
277.6,64.0,278.23,15.0,-29.8092,49.0,19.1908,1.11675e-08,4.11812,0.0,0.775909,14.2968
277.4,57.0,278.03,8.0,-30.6529,49.0,18.3471,2.88179e-09,3.98751,0.0,0.732282,13.6274
277.2,55.0,277.8303,6.0,-31.441,49.0,17.559,7.16739e-10,3.86304,0.0,0.692242,13.0037
277.1,50.0,277.73,1.0,-31.8159,49.0,17.1841,3.52521e-10,3.80299,0.0,0.673446,12.7077

File: UT-C1s.csv
#No of rows lightened (2D detector)1(if not using 2D detector, value is 1 and can be ignored!)
raw_x,raw_y,corrected x,data-bg,sum_components,bg,sum_fit,bg_shirley_,C=C,pi-pi*,pi-pi2,C-C,C-O,C=O,O-C=O
294.9,41.0578,295.531,-37.3328,21.9366,78.3906,100.327,78.3906,16.5205,0.100147,3.67671e-06,5.21181,0.00447756,0.0584262,0.0412557
294.6,99.5808,295.231,21.2409,23.3945,78.3399,101.734,78.3399,17.4538,0.289667,4.70264e-06,5.53753,0.00479377,0.0632975,0.0454638
294.3,105.41,294.931,27.1646,25.2663,78.2452,103.511,78.2452,18.4684,0.778415,5.02673e-06,5.89513,0.00514478,0.0688084,0.0503557
294.0,128.34,294.6307,50.1986,27.9433,78.1415,106.085,78.1415,19.5742,1.94345,4.49048e-06,6.28895,0.00553594,0.0750768,0.0560897
293.7,115.332,294.331,37.3074,32.1657,78.0248,110.191,78.0248,20.7824,4.50803,3.35244e-06,6.72413,0.00597361,0.0822493,0.0628731
293.4,78.1576,294.031,0.23405,39.1959,77.9235,117.119,77.9235,22.106,9.71518,2.09166e-06,7.20677,0.00646551,0.0905101,0.0709818
293.1,135.943,293.731,58.1006,50.9443,77.8423,128.787,77.8423,23.5602,19.452,1.09065e-06,7.74413,0.00702101,0.100093,0.0807904
292.8,146.074,293.431,68.3612,69.9047,77.7133,147.618,77.7133,25.1629,36.1851,4.75267e-07,8.34496,0.00765162,0.1113,0.0928182
292.5,156.368,293.1307,78.8028,98.7335,77.5654,176.299,77.5654,26.9348,62.5381,1.73083e-07,9.01988,0.00837158,0.124524,0.107804
292.2,194.845,292.831,117.444,139.377,77.401,216.778,77.401,28.9007,100.418,5.26784e-08,9.78184,0.00919871,0.140287,0.126831
291.9,277.908,292.531,200.732,191.863,77.1758,269.039,77.1758,31.09,149.805,1.3399e-08,10.6469,0.0101555,0.159294,0.151544
291.6,326.389,292.231,249.492,253.183,76.8967,330.079,76.8967,33.538,207.632,2.84823e-09,11.635,0.0112707,0.182521,0.184568
291.3,402.61,291.931,326.073,316.881,76.5362,393.417,76.5362,36.2869,267.369,5.05986e-10,12.7713,0.0125817,0.211346,0.230364
291.0,500.145,291.6307,424.002,373.91,76.1429,450.052,76.1429,39.3883,319.873,7.51216e-11,14.0884,0.0141374,0.247779,0.297595
290.7,501.172,291.331,425.495,414.801,75.6767,490.478,75.6767,42.9052,355.546,9.32079e-12,15.6281,0.0160035,0.294863,0.410439
290.4,500.432,291.031,425.248,432.591,75.1834,507.775,75.1834,46.9151,367.168,9.66501e-13,17.4463,0.0182693,0.357419,0.686053
290.1,511.702,290.731,437.011,425.664,74.6907,500.355,74.6907,51.5148,352.277,8.37557e-14,19.6187,0.0210593,0.443643,1.78931
289.8,474.488,290.431,400.242,400.355,74.2463,474.602,74.2463,56.8261,314.018,6.0658e-15,22.2508,0.0245513,0.569677,6.66685
289.5,475.437,290.1307,401.647,373.114,73.7893,446.903,73.7893,63.0035,260.06,3.67134e-16,25.4949,0.0290073,0.78034,23.7454
289.2,445.324,289.831,371.99,366.584,73.3343,439.918,73.3343,70.2464,200.099,1.85704e-17,29.5789,0.0348271,1.26555,65.3589
288.9,461.091,289.531,388.191,389.972,72.9006,462.873,72.9006,78.8149,143.043,7.85022e-19,34.8571,0.0426491,2.91392,130.301
288.6,483.049,289.231,410.603,419.705,72.446,492.151,72.446,89.0534,95.0031,2.77334e-20,41.8982,0.0535552,9.09388,184.603
288.3,489.278,288.931,417.321,425.139,71.9573,497.096,71.9573,101.426,58.6219,8.18817e-22,51.629,0.069582,28.5757,184.816
288.0,499.475,288.6307,428.002,420.826,71.473,492.299,71.473,116.572,33.6072,2.02038e-23,65.5471,0.0967826,74.2514,130.752
287.7,503.651,288.331,432.661,453.496,70.9901,524.486,70.9901,135.385,17.9001,4.1662e-25,85.9872,0.188149,148.304,65.7317
287.4,632.466,288.031,562.013,531.428,70.4535,601.881,70.4535,159.155,8.85787,7.17976e-27,116.356,0.936508,222.193,23.9291
287.1,653.911,287.731,584.085,616.107,69.8264,685.933,69.8264,189.792,4.07243,1.03405e-28,161.141,6.70988,247.665,6.7269
286.8,776.963,287.431,707.817,699.455,69.1456,768.6,69.1456,230.227,1.73952,1.24461e-30,225.392,35.265,205.028,1.8037
286.5,938.115,287.1307,869.772,844.322,68.3433,912.666,68.3433,285.139,0.690325,1.25196e-32,313.4,117.954,126.449,0.689257
286.2,1149.82,286.831,1082.45,1093.63,67.3696,1161,67.3696,362.387,0.254524,1.05246e-34,426.526,245.305,58.75,0.411484
285.9,1413.71,286.531,1347.56,1373.98,66.1511,1440.13,66.1511,475.997,0.0871878,7.39413e-37,560.688,315.659,21.2483,0.29815
285.6,1700.92,286.231,1636.25,1615.53,64.6678,1680.2,64.6678,652.958,0.027748,4.34138e-39,704.625,251.091,6.59648,0.230726
285.3,1944.29,285.931,1881.37,1916.33,62.9258,1979.25,62.9258,950.065,0.00820464,2.13025e-41,840.263,123.571,2.23484,0.184824
285.0,2527.19,285.6307,2466.36,2486.09,60.8316,2546.92,60.8316,1501.04,0.00225391,8.73568e-44,946.022,37.7954,1.0803,0.151733
284.7,3718.74,285.331,3660.67,3695.55,58.065,3753.62,58.065,2684.88,0.000575262,2.99381e-46,1002.49,7.34033,0.709393,0.126974
284.4,7118.09,285.031,7064.5,7045.38,53.5956,7098.97,53.5956,6045.22,0.000136409,8.57458e-49,998.492,1.03073,0.530072,0.107916
284.1,18367.7,284.731,18323.9,18198.9,43.7768,18242.6,43.7768,17263.3,3.0052e-05,2.05241e-51,934.826,0.198541,0.417287,0.0929071
283.8,22270.8,284.431,22248.4,22142.7,22.379,22165.1,22.379,21318.2,6.15111e-06,4.1056e-54,824.025,0.0987407,0.338584,0.0808623
283.5,5804.23,284.1307,5797.91,5931.17,6.31537,5937.49,6.31537,5244.61,1.16972e-06,6.8636e-57,686.134,0.0705532,0.28084,0.0710409
283.2,1346.9,283.831,1344.17,1203.24,2.72992,1205.97,2.72992,660.321,2.06664e-07,9.58934e-60,542.566,0.054191,0.237021,0.0629223
282.9,536.443,283.531,534.719,504.917,1.72349,506.641,1.72349,93.977,3.39231e-08,1.11966e-62,410.638,0.0430953,0.202893,0.0561311
282.6,268.618,283.231,267.306,313.893,1.31225,315.205,1.31225,12.9781,5.17342e-09,1.09257e-65,300.654,0.0351536,0.17575,0.0503909
282.3,167.397,282.931,166.307,217.617,1.08994,218.707,1.08994,1.52282,7.3301e-10,8.90987e-69,215.865,0.029254,0.153781,0.0454939
282.0,121.607,282.6307,120.664,154.738,0.942745,155.681,0.942745,0.143049,9.64923e-11,6.07234e-72,154.394,0.0247425,0.135735,0.0412818
281.7,92.5446,282.331,91.7149,111.934,0.829707,112.764,0.829707,0.0104195,1.18012e-11,3.45862e-75,111.744,0.0212106,0.12072,0.0376318
281.4,84.2233,282.031,83.4732,83.0454,0.750097,83.7955,0.750097,0.00057718,1.34094e-12,1.64631e-78,82.8839,0.0183912,0.108087,0.0344477
281.1,66.8019,281.731,66.1213,63.5949,0.680619,64.2755,0.680619,2.40076e-05,1.41561e-13,6.54911e-82,63.4498,0.0161033,0.0973539,0.0316531
280.8,56.2652,281.431,55.6396,50.3125,0.625616,50.9381,0.625616,7.43214e-07,1.38844e-14,2.17728e-85,50.181,0.0142201,0.0881551,0.0291867
280.5,32.635,281.1307,32.0557,40.9855,0.579315,41.5648,0.579315,1.70148e-08,1.26521e-15,6.04936e-89,40.8656,0.012651,0.0802095,0.0269988
280.2,24.8977,280.831,24.3496,34.2036,0.548028,34.7516,0.548028,2.86685e-10,1.07115e-16,1.40464e-92,34.0939,0.0113294,0.0732981,0.0250489
279.9,13.1343,280.531,12.6152,29.0964,0.519101,29.6155,0.519101,3.54471e-12,8.42531e-18,2.72574e-96,28.9956,0.0102056,0.0672478,0.0233036
279.6,14.3092,280.231,13.8098,25.1291,0.499432,25.6286,0.499432,3.15284e-14,6.15705e-19,4.42044e-100,25.0362,0.00924189,0.0619205,0.0217351
279.3,23.4319,279.931,22.9448,21.9676,0.487108,22.4547,0.487108,0.0,4.18033e-20,5.99111e-104,21.8817,0.00840905,0.057205,0.0203202
279.0,5.55436,279.6307,5.08395,19.3957,0.470415,19.8661,0.470415,0.0,2.63693e-21,6.78597e-108,19.316,0.00768433,0.0530107,0.0190395
278.7,6.60291,279.331,6.13754,17.2685,0.465371,17.7339,0.465371,0.0,1.54538e-22,6.4236e-112,17.1943,0.00704974,0.0492631,0.0178765
278.4,4.65042,279.031,4.19046,15.4849,0.459958,15.9449,0.459958,0.0,8.41444e-24,5.08167e-116,15.4157,0.00649088,0.0459008,0.0168171
278.1,0.712455,278.731,0.259917,13.9721,0.452538,14.4247,0.452538,0.0,4.25661e-25,3.35967e-120,13.9074,0.00599614,0.0428725,0.0158494
277.8,14.7862,278.431,14.3396,12.6764,0.446693,13.1231,0.446693,0.0,2.00057e-26,1.8563e-124,12.6158,0.00555603,0.0401353,0.0149631
277.5,18.9229,278.1307,18.491,11.5571,0.43194,11.989,0.43194,0.0,8.73564e-28,8.57163e-129,11.5001,0.00516277,0.0376528,0.0141492
277.2,6.98735,277.831,6.56441,10.5827,0.422937,11.0057,0.422937,0.0,3.54393e-29,3.3078e-133,10.5291,0.00480994,0.0353944,0.0134001
277.0,0.0,277.6307,-0.42028,10.0014,0.42028,10.4217,0.42028,0.0,4.01664e-30,3.41894e-136,9.94991,0.00459448,0.0340002,0.0129333

File: UT-O1s.csv
#No of rows lightened (2D detector)1(if not using 2D detector, value is 1 and can be ignored!),,,,,,,
raw_x,raw_y,corrected x,data-bg,sum_components,bg,sum_fit,bg_shirley_,C-O
540,7866,540.6485,-135.607,13.1956,8001.61,8014.8,8001.61,13.1956
539.8,8033,540.4485,31.531,13.9196,8001.47,8015.39,8001.47,13.9196
539.6,8037,540.2485,35.9037,14.7057,8001.1,8015.8,8001.1,14.7057
539.4,7958,540.0485,-42.6565,15.5614,8000.66,8016.22,8000.66,15.5614
539.2,7982,539.8485,-18.3541,16.4953,8000.35,8016.85,8000.35,16.4953
539,8056,539.6485,55.9888,17.5174,8000.01,8017.53,8000.01,17.5174
538.8,7910,539.4485,-89.6151,18.6394,7999.62,8018.25,7999.62,18.6394
538.6,7940,539.2485,-59.3915,19.8751,7999.39,8019.27,7999.39,19.8751
538.4,8021,539.0485,21.962,21.2407,7999.04,8020.28,7999.04,21.2407
538.2,7835,538.8485,-163.724,22.7556,7998.72,8021.48,7998.72,22.7556
538,8061,538.6485,62.4902,24.4431,7998.51,8022.95,7998.51,24.4431
537.8,7957,538.4485,-41.1147,26.3312,7998.11,8024.45,7998.11,26.3312
537.6,8099,538.2485,101.23,28.4543,7997.77,8026.22,7997.77,28.4543
537.4,7976,538.0485,-21.4385,30.8548,7997.44,8028.29,7997.44,30.8548
537.2,8048,537.8485,50.8916,33.5854,7997.11,8030.69,7997.11,33.5854
537,7977,537.6485,-19.608,36.7133,7996.61,8033.32,7996.61,36.7133
536.8,7945,537.4485,-51.395,40.3248,7996.4,8036.72,7996.4,40.3248
536.6,8015,537.2485,18.7637,44.5341,7996.24,8040.77,7996.24,44.5341
536.4,8033,537.0485,37.3035,49.496,7995.7,8045.19,7995.7,49.496
536.2,8034,536.8485,38.7528,55.4283,7995.25,8050.68,7995.25,55.4283
536,7961,536.6485,-33.9607,62.6507,7994.96,8057.61,7994.96,62.6507
535.8,8006,536.4485,11.3172,71.653,7994.68,8066.34,7994.68,71.653
535.6,8110,536.2485,115.763,83.2159,7994.24,8077.45,7994.24,83.2159
535.4,8128,536.0485,134.31,98.6158,7993.69,8092.31,7993.69,98.6158
535.2,8308,535.8485,314.85,119.957,7993.15,8113.11,7993.15,119.957
535,8245,535.6485,252.715,150.668,7992.29,8142.95,7992.29,150.668
534.8,8186,535.4485,194.507,196.166,7991.49,8187.66,7991.49,196.166
534.6,8202,535.2485,211.285,264.608,7990.71,8255.32,7990.71,264.608
534.4,8397,535.0485,407.183,367.511,7989.82,8357.33,7989.82,367.511
534.2,8483,534.8485,494.23,519.81,7988.77,8508.58,7988.77,519.81
534,8699,534.6485,711.592,738.814,7987.41,8726.22,7987.41,738.814
533.8,9084,534.4485,1098.54,1041.49,7985.46,9026.95,7985.46,1041.49
533.6,9296,534.2485,1313.4,1439.9,7982.6,9422.5,7982.6,1439.9
533.4,9786,534.0485,1806.88,1935.23,7979.12,9914.35,7979.12,1935.23
533.2,10565,533.8485,2590.36,2511.89,7974.64,10486.5,7974.64,2511.89
533,11039,533.6485,3070.35,3133.9,7968.65,11102.6,7968.65,3133.9
532.8,11764,533.4485,3802.51,3745.79,7961.49,11707.3,7961.49,3745.79
532.6,12379,533.2485,4426.13,4279.43,7952.87,12232.3,7952.87,4279.43
532.4,12490,533.0485,4546.88,4666.25,7943.12,12609.4,7943.12,4666.25
532.2,12807,532.8485,4873.99,4851.82,7933.01,12784.8,7933.01,4851.82
532,12624,532.6485,4701.54,4808.78,7922.46,12731.2,7922.46,4808.78
531.8,12428,532.4485,4515.59,4543.53,7912.41,12455.9,7912.41,4543.53
531.6,11909,532.2485,4006.05,4094.71,7902.95,11997.7,7902.95,4094.71
531.4,11479,532.0485,3584.4,3523.68,7894.6,11418.3,7894.6,3523.68
531.2,10875,531.8485,2987.85,2900.54,7887.15,10787.7,7887.15,2900.54
531,10279,531.6485,2397.76,2289.86,7881.24,10171.1,7881.24,2289.86
530.8,9588,531.4485,1711.6,1740.36,7876.4,9616.76,7876.4,1740.36
530.6,9219,531.2485,1346.02,1280.24,7872.98,9153.23,7872.98,1280.24
530.4,8717,531.0485,846.595,918.275,7870.41,8788.68,7870.41,918.275
530.2,8533,530.8485,664.151,648.49,7868.85,8517.34,7868.85,648.49
530,8363,530.6485,495.463,456.362,7867.54,8323.9,7867.54,456.362
529.8,8203,530.4485,336.443,324.358,7866.56,8190.91,7866.56,324.358
529.6,7997,530.2485,130.995,235.835,7866.01,8101.84,7866.01,235.835
529.4,7961,530.0485,95.4656,177.078,7865.53,8042.61,7865.53,177.078
529.2,8002,529.8485,136.707,137.867,7865.29,8003.16,7865.29,137.867
529,7930,529.6485,65.0513,111.149,7864.95,7976.1,7864.95,111.149
528.8,7886,529.4485,21.2302,92.3327,7864.77,7957.1,7864.77,92.3327
528.6,7991,529.2485,126.392,78.5517,7864.61,7943.16,7864.61,78.5517
528.4,7961,529.0485,96.6445,68.0576,7864.36,7932.41,7864.36,68.0576
528.2,7809,528.8485,-55.2372,59.7891,7864.24,7924.03,7864.24,59.7891
528,7964,528.6485,99.7107,53.0924,7864.29,7917.38,7864.29,53.0924
527.8,7834,528.4485,-30.1242,47.5516,7864.12,7911.68,7864.12,47.5516
527.6,7921,528.2485,56.8738,42.8909,7864.13,7907.02,7864.13,42.8909
527.4,8051,528.0485,187.049,38.9193,7863.95,7902.87,7863.95,38.9193
527.2,7970,527.8485,106.45,35.4992,7863.55,7899.05,7863.55,35.4992
527,7855,527.6485,-8.40101,32.5279,7863.4,7895.93,7863.4,32.5279
526.8,7969,527.4485,105.78,29.927,7863.22,7893.15,7863.22,29.927
526.6,7820,527.2485,-43.1485,27.6352,7863.15,7890.78,7863.15,27.6352
526.4,7922,527.0485,58.8473,25.6039,7863.15,7888.76,7863.15,25.6039
526.2,7966,526.8485,103.079,23.794,7862.92,7886.71,7862.92,23.794
526,7892,526.6485,29.186,22.1737,7862.81,7884.99,7862.81,22.1737
525.8,7904,526.4485,41.3022,20.7168,7862.7,7883.41,7862.7,20.7168
525.6,7725,526.2485,-137.686,19.4015,7862.69,7882.09,7862.69,19.4015
525.4,7907,526.0485,44.0171,18.2099,7862.98,7881.19,7862.98,18.2099
525.2,7872,525.8485,9.0938,17.1265,7862.91,7880.03,7862.91,17.1265
525,7838,525.6485,-24.9285,16.1384,7862.93,7879.07,7862.93,16.1384