Folder: python_code_MXene_VRFB/XPS/LG4X-result (part 5)

File: MX-UT-0.1-1-C1s.csv
#No of rows lightened (2D detector)1(if not using 2D detector, value is 1 and can be ignored!)
raw_x,raw_y,corrected x,data-bg,sum_components,bg,sum_fit,C=C,pi-pi,pi-pi*2,C-C,C-O,C=O,TiC
295.0,777.0,295.4017,46.0,-700.08,731.0,30.9203,10.8929,8.5354,0.0462558,3.37444,6.92631,1.05714,0.0878543
294.8,732.0,295.202,1.0,-698.048,731.0,32.9525,11.3041,9.60329,0.0859962,3.50913,7.23899,1.12041,0.0905392
294.6,810.0,295.002,79.0,-695.625,731.0,35.3745,11.7391,10.9127,0.214535,3.65204,7.57324,1.18958,0.0933491
294.4,731.0,294.802,0.0,-691.536,731.0,39.4638,12.1996,12.5481,1.61947,3.80385,7.93109,1.26544,0.0962919
294.2,826.0,294.602,95.4273,-642.804,730.573,87.7689,12.6877,14.6297,46.7231,3.96533,8.31479,1.34886,0.0993761
294.0,771.0,294.4017,40.8036,-684.735,730.196,45.4615,13.2058,17.3276,0.520404,4.13729,8.72689,1.44092,0.102611
293.8,748.0,294.202,17.9916,-680.093,730.008,49.9149,13.7563,20.8778,0.141118,4.32069,9.17023,1.54285,0.106006
293.6,747.0,294.002,17.187,-673.878,729.813,55.9347,14.3419,25.597,0.0655214,4.51654,9.64806,1.65614,0.109573
293.4,789.0,293.802,59.4551,-665.862,729.545,63.6825,14.9657,31.893,0.0377883,4.72601,10.164,1.78258,0.113323
293.2,834.0,293.602,105.013,-655.357,728.987,73.6307,15.6312,40.2608,0.0245757,4.95038,10.7222,1.92431,0.117269
293.0,809.0,293.4017,80.5451,-642.116,728.455,86.3389,16.3421,51.2556,0.0172578,5.1911,11.3274,2.08395,0.121424
292.8,782.0,293.202,54.1129,-625.512,727.887,102.375,17.1026,65.4342,0.0127835,5.4498,11.985,2.2647,0.125805
292.6,867.0,293.002,139.732,-605.054,727.268,122.214,17.9174,83.2564,0.00984892,5.72831,12.7011,2.47056,0.130426
292.4,898.0,292.802,171.736,-580.157,726.264,146.107,18.792,104.954,0.0078205,6.02871,13.4828,2.70651,0.135308
292.2,884.0,292.602,158.707,-551.361,725.293,173.932,19.7322,130.382,0.00636007,6.35333,14.3384,2.97888,0.140469
292.0,919.0,292.4017,194.892,-519.052,724.108,205.056,20.7448,158.882,0.00527371,6.70487,15.2774,3.29583,0.14593
291.8,991.0,292.202,268.385,-484.351,722.615,238.264,21.8374,189.205,0.00444374,7.08638,16.3109,3.668,0.151717
291.6,1002.0,292.002,281.03,-449.197,720.97,271.773,23.0187,219.53,0.00379537,7.50135,17.4518,4.10952,0.157855
291.4,1010.0,291.802,290.899,-415.721,719.101,303.38,24.2985,247.605,0.00327924,7.95381,18.7154,4.63952,0.164373
291.2,1038.0,291.602,320.802,-386.469,717.198,330.729,25.6882,271.014,0.00286168,8.44841,20.1197,5.28436,0.171304
291.0,1073.0,291.4017,357.964,-363.37,715.036,351.666,27.2006,287.527,0.00251909,8.99054,21.6862,6.08099,0.178682
290.8,1070.0,291.202,357.301,-348.091,712.699,364.608,28.8507,295.46,0.00223454,9.58649,23.4404,7.08188,0.186548
290.6,1078.0,291.002,367.773,-341.38,710.227,368.846,30.6558,293.975,0.00199562,10.2436,25.4131,8.36181,0.194945
290.4,1051.0,290.802,342.992,-343.297,708.008,364.711,32.6358,283.231,0.00179307,10.9705,27.6416,10.0265,0.203922
290.2,1037.0,290.602,331.068,-352.379,705.932,353.553,34.8141,264.354,0.00161987,11.7775,30.1711,12.2215,0.213534
290.0,1056.0,290.4017,352.292,-366.159,703.708,337.549,37.2182,239.233,0.0014706,12.6766,33.0574,15.1385,0.223842
289.8,1025.0,290.202,323.288,-382.334,701.712,319.378,39.8803,210.198,0.00134106,13.6825,36.3692,19.0116,0.234916
289.6,1037.0,290.002,337.404,-397.762,699.596,301.835,42.8388,179.648,0.00122791,14.8128,40.1921,24.0947,0.246832
289.4,1001.0,289.802,303.301,-410.241,697.699,287.458,46.1393,149.724,0.0011285,16.0886,44.634,30.6114,0.259679
289.2,972.0,289.602,276.148,-417.624,695.852,278.228,49.8366,122.076,0.00104069,17.5361,49.8315,38.673,0.273556
289.0,992.0,289.4017,298.028,-418.596,693.972,275.377,53.9967,97.7681,0.000962749,19.1874,55.9593,48.1755,0.288576
288.8,945.0,289.202,252.825,-412.854,692.175,279.32,58.7,77.2845,0.000893245,21.0824,63.2437,58.704,0.304869
288.6,975.0,289.002,284.56,-400.695,690.44,289.745,64.0447,60.6377,0.000831006,23.2714,71.9793,69.489,0.322583
288.4,989.0,288.802,300.35,-382.817,688.65,305.833,70.1516,47.5087,0.000775052,25.8181,82.5549,79.457,0.341887
288.2,1044.0,288.602,357.277,-360.108,686.723,326.616,77.1707,37.3948,0.000724565,28.8044,95.4863,87.3956,0.362978
288.0,1008.0,288.4017,323.516,-333.07,684.484,351.413,85.2895,29.731,0.000678856,32.3371,111.464,92.2052,0.386085
287.8,1083.0,288.202,400.841,-301.89,682.159,380.269,94.7438,23.9763,0.00063734,36.557,131.413,93.1668,0.411472
287.6,1079.0,288.002,399.285,-265.426,679.715,414.289,105.834,19.6612,0.000599519,41.653,156.569,90.132,0.439449
287.4,1153.0,287.802,476.058,-221.121,676.942,455.82,118.943,16.4069,0.000564967,47.8832,188.552,83.5639,0.470383
287.2,1178.0,287.602,504.172,-165.423,673.828,508.405,134.572,13.9232,0.000533319,55.6067,229.387,74.4114,0.504704
287.0,1254.0,287.4017,583.733,-93.8226,670.267,576.444,153.376,11.9964,0.000504257,65.3351,281.325,63.868,0.542927
286.8,1329.0,287.202,662.55,-2.1005,666.45,664.349,176.236,10.4738,0.000477508,77.8152,346.138,53.1002,0.585666
286.6,1449.0,287.002,787,112.686,662,774.685,204.356,9.24736,0.000452832,94.169,423.243,43.0358,0.633664
286.4,1590.0,286.802,933.59,248.506,656.41,904.916,239.431,8.24179,0.000430021,116.138,506.159,34.2578,0.687821
286.2,1649.0,286.602,998.714,394.07,650.286,1044.36,283.925,7.40399,0.000408891,146.527,578.742,27.0086,0.749238
286.0,1812.0,286.4017,1168.58,534.506,643.418,1177.92,341.574,6.69622,0.000389281,190.046,617.523,21.266,0.819276
285.8,1962.0,286.202,1326.55,667.698,635.452,1303.15,418.334,6.09118,0.000371049,254.964,606.013,16.8481,0.89963
285.6,2124.0,286.002,1497.18,823.422,626.819,1450.24,524.308,5.56874,0.000354068,356.461,549.404,13.507,0.992434
285.4,2305.0,285.802,1688.16,1071.14,616.842,1687.98,678.052,5.11371,0.000338227,523.115,469.606,10.9949,1.1004
285.2,2797.0,285.602,2192.36,1521.57,604.639,2126.2,917.439,4.71444,0.000323425,805.828,387.897,9.09863,1.22704
285.0,3345.0,285.4017,2756.08,2333.21,588.92,2922.13,1332.46,4.36178,0.000309575,1260.41,315.873,7.65093,1.37692
284.8,4586.0,285.202,4018.56,3652.39,567.439,4219.83,2192.86,4.0485,0.000296595,1757.95,256.876,6.52817,1.55611
284.6,7339.0,285.002,6805.29,5954.31,533.709,6488.02,4502.9,3.76875,0.000284415,1763.82,210.116,5.642,1.77282
284.4,12716.0,284.802,12241.2,11761.5,474.825,12236.3,10782.9,3.51777,0.000272971,1269.5,173.463,4.9303,2.03834
284.2,20094.0,284.602,19721.3,19567.4,372.667,19940.1,18973.3,3.29164,0.000262203,812.027,144.722,4.34946,2.36856
284.0,18010.0,284.4017,17761.5,17200.4,248.529,17448.9,16790.3,3.08711,0.00025206,526.77,122.041,3.86857,2.7865
283.8,8055.0,284.202,7887.32,7746.07,167.682,7913.75,7441.44,2.90145,0.000242495,358.641,103.978,3.4654,3.32638
283.6,2738.0,284.002,2601.02,2614.26,136.978,2751.24,2395.57,2.73237,0.000233463,256.327,89.4446,3.12367,4.04113
283.4,1346.0,283.802,1220.38,1044.18,125.617,1169.8,890.807,2.5779,0.000224928,190.94,77.6273,2.83122,5.01608
283.2,786.0,283.602,666.137,517.883,119.863,637.746,411.274,2.43639,0.000216851,147.14,67.9195,2.57881,6.39659
283.0,525.0,283.4017,408.411,286.664,116.589,403.252,213.698,2.3064,0.000209203,116.574,59.8666,2.35932,8.44776
282.8,419.0,283.202,304.598,167.346,114.402,281.749,118.081,2.18669,0.000201951,94.4894,53.1249,2.16717,11.6996
282.6,356.0,283.002,243.399,101.817,112.601,214.417,67.4932,2.07619,0.000195071,78.057,47.4325,1.99792,17.3604
282.4,301.0,282.802,189.767,68.8059,111.233,180.039,39.2857,1.97397,0.000188536,65.5217,42.5878,1.84802,28.8213
282.2,334.0,282.602,224.115,70.0286,109.885,179.914,23.0564,1.87921,0.000182324,55.7536,38.4342,1.71459,59.0755
282.0,381.0,282.4017,272.668,152.244,108.332,260.576,13.5517,1.79119,0.000176414,48.0008,34.8489,1.59528,160.788
281.8,588.0,282.202,481.899,387.478,106.101,493.579,7.93857,1.70928,0.000170787,41.7486,31.7345,1.48814,408.96
281.6,748.0,282.002,645.604,553.522,102.396,655.918,4.61811,1.63293,0.000165425,36.6357,29.0134,1.39155,582.626
281.4,608.0,281.802,509.356,356.503,98.6441,455.147,2.66044,1.56163,0.000160311,32.4026,26.6231,1.30416,390.595
281.2,295.0,281.602,198.414,111.275,96.5861,207.861,1.51447,1.49494,0.000155431,28.8595,24.5126,1.22482,150.254
281.0,194.0,281.4017,98.2893,12.1734,95.7107,107.884,0.850395,1.43247,0.000150771,25.8649,22.6406,1.15257,55.943
280.8,173.0,281.202,77.8491,-20.1607,95.1509,74.9902,0.470336,1.37388,0.000146317,23.3115,20.9727,1.08658,27.7751
280.6,132.0,281.002,37.2027,-34.7128,94.7973,60.0845,0.25592,1.31883,0.000142057,21.117,19.4808,1.02613,16.8857
280.4,140.0,280.802,45.455,-43.3714,94.545,51.1736,0.136859,1.26706,0.000137981,19.2175,18.141,0.970635,11.4404
280.2,133.0,280.602,38.6852,-49.3191,94.3148,44.9956,0.07187,1.2183,0.000134078,17.5624,16.9337,0.919549,8.28969
280.0,117.0,280.4017,22.8581,-53.8135,94.1419,40.3284,0.0370345,1.17232,0.000130338,16.1117,15.842,0.872417,6.29281
279.8,135.0,280.202,41.0447,-57.3496,93.9553,36.6057,0.0187145,1.12891,0.000126753,14.8332,14.8517,0.82884,4.94416
279.6,120.0,280.002,26.2691,-60.2044,93.7309,33.5264,0.00926879,1.08789,0.000123313,13.7007,13.9508,0.788467,3.98919
279.4,131.0,279.802,37.4726,-62.6133,93.5274,30.914,0.00449711,1.04908,0.000120012,12.6928,13.129,0.750989,3.28763
279.2,114.0,279.602,20.633,-64.7104,93.367,28.6566,0.0021366,1.01232,0.000116841,11.7919,12.3771,0.716134,2.7568
279.0,135.0,279.4017,41.8357,-66.4856,93.1643,26.6788,0.000993646,0.977471,0.000113794,10.9835,11.6877,0.683663,2.3453
278.8,101.0,279.202,8.0,-68.0726,93.0,24.9274,0.00045218,0.944403,0.000110865,10.2553,11.054,0.653361,2.01977
278.6,99.0,279.002,6.0,-69.6366,93.0,23.3634,0.000201295,0.912994,0.000108048,9.59712,10.4702,0.625039,1.75776
278.4,104.0,278.802,11.0,-71.043,93.0,21.957,8.76356e-05,0.883135,0.000105336,9.0002,9.93116,0.598528,1.54373
278.2,112.0,278.602,19.0,-72.3151,93.0,20.6849,3.73033e-05,0.854725,0.000102726,8.45721,9.43253,0.573675,1.36661
278.0,126.0,278.4017,33.0,-73.4713,93.0,19.5287,1.55217e-05,0.827671,0.000100211,7.96185,8.97036,0.550344,1.21837
277.8,102.0,278.202,9.0,-74.5266,93.0,18.4734,6.31202e-06,0.801888,9.77878e-05,7.50871,8.54119,0.528414,1.09304
277.6,102.0,278.002,9.0,-75.4936,93.0,17.5064,2.50817e-06,0.777296,9.54512e-05,7.09314,8.14197,0.507773,0.986129
277.4,101.0,277.802,8.0,-76.3825,93.0,16.6175,9.73717e-07,0.753825,9.31974e-05,6.7111,7.76998,0.488323,0.894189
277.3,98.0,277.702,5.0,-76.8005,93.0,16.1995,6.01392e-07,0.742487,9.21003e-05,6.53154,7.59344,0.479016,0.852974

File: MX-UT-0.1-1-O1s.csv
#No of rows lightened (2D detector)1(if not using 2D detector, value is 1 and can be ignored!)
raw_x,raw_y,corrected x,data-bg,sum_components,bg,sum_fit,bg_shirley_,C-O,TiO2,C-Ti-(OH)x
537.5,260.943,537.9255,260.942,57.8385,0.000469149,57.8389,0.000469149,0.000999686,9.83092,48.0065
537.3,218.578,537.7255,218.577,61.3748,0.000468295,61.3753,0.000468295,0.00295905,10.3225,51.0493
537.1,108.169,537.526,108.168,65.2476,0.000467427,65.248,0.000467427,0.00838996,10.852,54.3872
536.9,29.3366,537.3255,29.3361,69.505,0.000467132,69.5055,0.000467132,0.0227869,11.4231,58.0591
536.7,186.678,537.126,186.678,74.2103,0.000466857,74.2108,0.000466857,0.059283,12.0406,62.1105
536.5,108.365,536.9255,108.365,79.4518,0.000465899,79.4522,0.000465899,0.147738,12.7094,66.5946
536.3,29.5548,536.7255,29.5543,85.3625,0.000465576,85.363,0.000465576,0.352674,13.4356,71.5743
536.1,134.79,536.526,134.789,92.1561,0.000465384,92.1565,0.000465384,0.806442,14.2257,77.124
535.9,205.534,536.3255,205.534,100.186,0.000464505,100.187,0.000464505,1.76641,15.0875,83.3323
535.7,251.11,536.126,251.11,110.042,0.000463816,110.042,0.000463816,3.70619,16.0299,90.3055
535.5,170.792,535.9255,170.792,122.683,0.000462862,122.684,0.000462862,7.44874,17.0635,98.1713
535.3,182.265,535.7255,182.265,139.625,0.00046227,139.626,0.00046227,14.3402,18.2001,107.085
535.1,230.203,535.526,230.202,163.134,0.000461122,163.135,0.000461122,26.4453,19.454,117.235
534.9,229.195,535.3255,229.195,196.411,0.000459853,196.411,0.000459853,46.7152,20.842,128.853
534.7,136.759,535.126,136.759,243.658,0.000459038,243.659,0.000459038,79.0473,22.3836,142.227
534.5,306.504,534.9255,306.504,309.941,0.00045826,309.942,0.00045826,128.125,24.1026,157.714
534.3,385.414,534.7255,385.414,400.716,0.000457178,400.717,0.000457178,198.93,26.027,175.76
534.1,471.82,534.526,471.82,520.98,0.000455471,520.98,0.000455471,295.858,28.191,196.93
533.9,740.806,534.3255,740.805,674.068,0.000453209,674.068,0.000453209,421.489,30.6359,221.943
533.7,900.312,534.126,900.311,860.311,0.000450171,860.311,0.000450171,575.184,33.4123,251.714
533.5,945.232,533.9255,945.232,1075.88,0.000446486,1075.88,0.000446486,751.877,36.5828,287.42
533.3,1215.82,533.7255,1215.82,1312.26,0.00044218,1312.26,0.00044218,941.465,40.2256,330.571
533.1,1714.59,533.526,1714.59,1556.77,0.000436592,1556.77,0.000436592,1129.23,44.439,383.101
532.9,1743.89,533.3255,1743.89,1794.21,0.000429863,1794.21,0.000429863,1297.4,49.348,447.456
532.7,1923.04,533.126,1923.04,2009.63,0.000422186,2009.63,0.000422186,1427.87,55.1142,526.645
532.5,2311.96,532.9255,2311.96,2191.4,0.000413737,2191.4,0.000413737,1505.29,61.9482,624.166
532.3,2320.16,532.7255,2320.16,2333.81,0.000404555,2333.81,0.000404555,1520.09,70.1295,743.585
532.1,2419.88,532.526,2419.88,2437.83,0.000394801,2437.83,0.000394801,1470.41,80.0345,887.386
531.9,2517.39,532.3255,2517.39,2509.11,0.000385301,2509.11,0.000385301,1362.47,92.18,1054.47
531.7,2470.64,532.126,2470.64,2552.43,0.000374712,2552.43,0.000374712,1209.29,107.29,1235.85
531.5,2617,531.9255,2617,2564.31,0.000364193,2564.31,0.000364193,1028.15,126.403,1409.76
531.3,2631.19,531.7255,2631.19,2529.46,0.000353744,2529.46,0.000353744,837.331,151.051,1541.07
531.1,2435.4,531.526,2435.4,2429.58,0.00034305,2429.58,0.00034305,653.218,183.559,1592.8
530.9,2287.68,531.3255,2287.68,2263.41,0.000333599,2263.41,0.000333599,488.132,227.591,1547.69
530.7,1881.27,531.126,1881.27,2059.44,0.000324772,2059.44,0.000324772,349.409,289.159,1420.87
530.5,1860.24,530.9255,1860.24,1866.88,0.00031712,1866.88,0.00031712,239.58,378.612,1248.69
530.3,1721.02,530.7255,1721.02,1739.08,0.000309601,1739.08,0.000309601,157.357,514.773,1066.95
530.1,1885.66,530.526,1885.66,1731.42,0.000302563,1731.42,0.000302563,99.0007,733.979,898.443
529.9,2177.29,530.3255,2177.29,1922.78,0.00029439,1922.79,0.00029439,59.6636,1110.22,752.902
529.7,2666.95,530.126,2666.95,2460.1,0.000285108,2460.1,0.000285108,34.4429,1793.84,631.822
529.5,3478.87,529.9255,3478.87,3557.97,0.000273263,3557.97,0.000273263,19.0462,3006.05,532.872
529.3,4758.05,529.7255,4758.05,4881.22,0.000257739,4881.22,0.000257739,10.0887,4418.63,452.51
529.1,4649.3,529.526,4649.3,4586.57,0.000238144,4586.57,0.000238144,5.11894,4194.23,387.216
528.9,3192.41,529.3255,3192.41,3046.56,0.00021991,3046.56,0.00021991,2.48796,2710.13,333.939
528.7,1846.46,529.126,1846.46,1909.47,0.000208259,1909.47,0.000208259,1.15831,1618.11,290.196
528.5,1046.1,528.9255,1046.1,1269.27,0.000201506,1269.27,0.000201506,0.516566,1014.74,254.02
528.3,579.44,528.7255,579.44,903.715,0.000198045,903.715,0.000198045,0.220671,679.622,223.872
528.1,197.828,528.526,197.828,680.391,0.000195882,680.392,0.000195882,0.0902989,481.744,198.557
527.9,256.584,528.3255,256.584,534.494,0.000194976,534.495,0.000194976,0.0353947,357.318,177.141
527.7,220.434,528.126,220.434,433.639,0.000193853,433.64,0.000193853,0.0132896,274.731,158.895
527.5,206.05,527.9255,206.05,360.656,0.000193052,360.656,0.000193052,0.00477975,217.407,143.244
527.3,370.925,527.7255,370.925,305.858,0.000192103,305.858,0.000192103,0.00164671,176.122,129.734
527.1,79.6127,527.526,79.6125,263.467,0.000190927,263.467,0.000190927,0.000543433,145.464,118.002
526.9,81.0,527.3255,80.9998,229.862,0.000190434,229.862,0.000190434,0.000171789,122.105,107.757
526.7,64.0,527.126,63.9998,202.678,0.000190268,202.678,0.000190268,5.20188e-05,103.915,98.7629
526.5,268.0,526.9255,268,180.312,0.000189749,180.312,0.000189749,1.50885e-05,89.4834,90.8287
526.3,172.0,526.7255,172,161.644,0.000188783,161.644,0.000188783,4.19227e-06,77.8468,83.7972
526.1,238.0,526.526,238,145.869,0.000188372,145.87,0.000188372,1.11576e-06,68.3309,77.5386
525.9,148.0,526.3255,148,132.398,0.000187685,132.398,0.000187685,2.84453e-07,60.4519,71.9456
525.7,20.0,526.126,19.9998,120.785,0.000187013,120.785,0.000187013,6.94656e-08,53.8563,66.9284
525.5,251.0,525.9255,251,110.692,0.000186627,110.692,0.000186627,1.62498e-08,48.2807,62.4115
525.3,355.0,525.7255,355,101.857,0.000185427,101.857,0.000185427,3.64119e-09,43.5256,58.3315
525.1,129.0,525.526,129,94.0726,0.00018405,94.0727,0.00018405,7.8155e-10,39.4381,54.6345
525.0,193.0,525.4255,193,90.5213,0.000183786,90.5215,0.000183786,3.56294e-10,37.6064,52.9149

File: MX-UT-0.1-1-Ti2p.csv
#No of rows lightened (2D detector)1(if not using 2D detector, value is 1 and can be ignored!)
raw_x,raw_y,corrected x,data-bg,sum_components,bg,sum_fit,C_1,C_2,C_3,C_4,C_5,C_6,C_7
467.5,14242.0,467.9195,286.0,-13712,13956.0,243.985,58.7562,29.8852,14.2204,5.59709,68.6051,47.7644,19.1563
467.3,14347.0,467.7195,391.0,-13699.7,13956.0,256.333,60.5853,30.8731,14.7444,5.83886,72.7154,50.8554,20.7207
467.1,14411.0,467.52,455.0,-13686.2,13956.0,269.751,62.5011,31.9107,15.2979,6.09662,77.2053,54.2553,22.4836
466.9,14296.0,467.3195,340.0,-13671.6,13956.0,284.375,64.5093,33.0015,15.8832,6.37179,82.1228,58.0064,24.4796
466.7,14114.0,467.12,158.0,-13655.6,13956.0,300.367,66.6156,34.1492,16.5026,6.66599,87.5237,62.1587,26.7516
466.5,14229.0,466.9195,273.0,-13638.1,13956.0,317.921,68.8268,35.3577,17.159,6.98102,93.4733,66.7711,29.3523
466.3,14187.0,466.7195,231.0,-13618.7,13956.0,337.265,71.1498,36.6314,17.8553,7.31887,100.048,71.9138,32.3476
466.1,14149.0,466.52,193.0,-13597.3,13956.0,358.674,73.5923,37.9752,18.5947,7.6818,107.339,77.671,35.8205
465.9,14111.0,466.3195,155.0,-13573.5,13956.0,382.483,76.1627,39.3942,19.381,8.07235,115.452,84.1438,39.8766
465.7,14146.0,466.12,190.0,-13546.9,13956.0,409.099,78.87,40.8942,20.2182,8.4934,124.516,91.455,44.6521
465.5,14196.0,465.9195,240.86,-13516.1,13955.1,439.028,81.724,42.4814,21.1107,8.94818,134.685,99.7547,50.324
465.3,14162.0,465.7195,209.793,-13479.3,13952.2,472.899,84.7357,44.1626,22.0635,9.44041,146.143,109.228,57.1262
465.1,14234.0,465.52,286.098,-13436.4,13947.9,511.512,87.9168,45.9456,23.0823,9.97429,159.118,120.104,65.3709
464.9,14191.0,465.3195,246.146,-13389,13944.9,555.885,91.2803,47.8387,24.1731,10.5546,173.886,132.672,75.4814
464.7,14437.0,465.12,496.202,-13333.5,13940.8,607.345,94.8402,49.851,25.343,11.187,190.79,147.295,88.0388
464.5,14421.0,464.9195,487.305,-13266.1,13933.7,667.634,98.6123,51.9928,26.5997,11.8777,210.259,164.441,103.851
464.3,14676.0,464.7195,750.445,-13186.5,13925.6,739.074,102.614,54.2754,27.9521,12.6343,232.833,184.715,124.05
464.1,14504.0,464.52,587.747,-13091.5,13916.3,824.779,106.863,56.7115,29.41,13.4652,259.198,208.909,150.222
463.9,14687.0,464.3195,780.031,-12978,13907,928.922,111.382,59.3151,30.9848,14.3805,290.238,238.075,184.546
463.7,14872.0,464.12,977.974,-12837.1,13894,1056.94,116.193,62.1018,32.6892,15.392,327.106,273.628,229.829
463.5,14957.0,463.9195,1078.31,-12663.4,13878.7,1215.31,121.323,65.0893,34.5379,16.5137,371.32,317.499,289.024
463.3,15354.0,463.7195,1493.29,-12451,13860.7,1409.74,126.799,68.2972,36.5474,17.7619,424.911,372.357,363.069
463.1,15513.0,463.52,1675.15,-12198,13837.9,1639.89,132.653,71.7477,38.7371,19.1563,490.629,441.93,445.041
462.9,15616.0,463.3195,1802.16,-11922.9,13813.8,1890.9,138.922,75.4659,41.1289,20.7207,572.252,531.446,510.965
462.7,15814.0,463.12,2027.89,-11652.2,13786.1,2133.91,145.645,79.4802,43.7486,22.4836,675.031,648.189,519.334
462.5,16164.0,462.9195,2410.74,-11397.6,13753.3,2355.64,152.868,83.8226,46.6258,24.4796,806.324,801.933,439.592
462.3,16257.0,462.7195,2539.02,-11117.3,13718,2600.68,160.64,88.5299,49.7953,26.7516,976.44,1004.39,294.133
462.1,16602.0,462.519,2923.33,-10718.7,13678.7,2960.01,169.019,93.6441,53.2979,29.3523,1199.55,1264.91,150.237
461.9,16811.0,462.32,3176.52,-10140.3,13634.5,3494.18,178.069,99.2132,57.1817,32.3476,1493.89,1575.84,57.6373
461.7,17059.0,462.12,3472.58,-9419.53,13586.4,4166.89,187.864,105.293,61.5039,35.8205,1878.65,1881.16,16.589
461.5,17401.0,461.9195,3868.18,-8704.83,13532.8,4827.99,198.488,111.947,66.3325,39.8766,2359.95,2047.79,3.6097
461.3,17469.0,461.7195,3992.3,-8224.23,13476.7,5252.47,210.037,119.25,71.7495,44.6521,2892.76,1913.42,0.599836
461.1,17752.0,461.519,4335.03,-8169.53,13417,5247.44,222.621,127.288,77.8536,50.324,3321.27,1448,0.0767205
460.9,17632.0,461.32,4277.27,-8615.44,13354.7,4739.29,236.367,136.165,84.7654,57.1262,3375.67,849.183,0.00758228
460.7,17491.0,461.12,4197.78,-9504.18,13293.2,3789.04,251.422,145.999,92.6327,65.3709,2857.35,376.269,0.000579316
460.5,16844.0,460.9195,3606.75,-10598.4,13237.3,2638.83,267.957,156.932,101.638,75.4814,1911.86,124.961,3.41665e-05
460.3,16507.0,460.7195,3318.81,-11525.1,13188.2,1663.13,286.172,169.135,112.01,88.0388,976.538,31.2331,1.55174e-06
460.1,15775.0,460.519,2629.36,-12048.1,13145.6,1097.57,306.301,182.81,124.035,103.851,374.643,5.932,5.41328e-08
459.9,15178.0,460.32,2065.54,-12214.8,13112.5,897.647,328.622,198.202,138.08,124.05,107.829,0.864173,1.44704e-09
459.7,14816.0,460.12,1729.55,-12189,13086.4,897.468,353.461,215.609,154.616,150.222,23.463,0.0971354,2.95768e-11
459.5,14727.0,459.9195,1664.84,-12082.8,13062.2,979.317,381.211,235.396,174.257,184.546,3.89893,0.00844153,4.61992e-13
459.3,14641.0,459.7195,1602.62,-11939.9,13038.4,1098.49,412.342,258.012,197.81,229.829,0.498683,0.000566809,5.72356e-15
459.1,14494.0,459.519,1477.91,-11769.2,13016.1,1246.87,447.423,284.018,226.359,289.024,0.0492848,2.93445e-05,0.0
458.9,14611.0,459.32,1617.14,-11568.2,12993.9,1425.71,487.145,314.119,261.369,363.069,0.00376556,1.16841e-06,0.0
458.7,14833.0,459.12,1863.65,-11337.9,12969.4,1631.46,532.358,349.21,304.851,445.041,0.000222082,3.56902e-08,0.0
458.5,14839.0,458.9195,1896.79,-11097.1,12942.2,1845.12,584.111,390.437,359.604,510.965,1.00863e-05,8.34451e-10,0.0
458.3,15077.0,458.7195,2163.54,-10881.6,12913.5,2031.89,643.717,439.293,429.546,519.334,3.51863e-07,1.48998e-11,0.0
458.1,14874.0,458.519,1989.51,-10714.2,12884.5,2170.33,712.827,497.738,520.171,439.592,9.40577e-09,2.02108e-13,0.0
457.9,15183.0,458.32,2328.88,-10559,12854.1,2295.08,793.545,568.382,639.025,294.133,1.92249e-10,0.0,0.0
457.7,15450.0,458.12,2630.85,-10329.8,12819.1,2489.39,888.576,654.753,795.828,150.237,3.00295e-12,0.0,0.0
457.5,15752.0,457.9195,2972.26,-9958.18,12779.7,2821.56,1001.45,761.675,1000.8,57.6373,3.72031e-14,0.0,0.0
457.3,16112.0,457.7195,3376.72,-9428.85,12735.3,3306.43,1136.81,895.838,1257.2,16.589,0.0,0.0,0.0
457.1,16689.0,457.519,4005.26,-8771.61,12683.7,3912.13,1300.88,1066.6,1541.04,3.6097,0.0,0.0,0.0
456.9,17069.0,457.32,4445.77,-8064.14,12623.2,4559.09,1502.08,1287.1,1769.31,0.599836,0.0,0.0,0.0
456.7,17425.0,457.12,4868.8,-7430.35,12556.2,5125.85,1751.97,1575.51,1798.29,0.0767205,0.0,0.0,0.0
456.5,18142.0,456.9195,5662.28,-6935.11,12479.7,5544.61,2066.63,1955.8,1522.17,0.00758228,0.0,0.0,0.0
456.3,19197.0,456.7195,6806.32,-6448.42,12390.7,5942.26,2468.59,2455.18,1018.49,0.000579316,0.0,0.0,0.0
456.1,19488.0,456.519,7196.52,-5691.92,12291.5,6599.57,2989.41,3089.93,520.223,3.41665e-05,0.0,0.0,0.0
455.9,20272.0,456.32,8090.18,-4487.06,12181.8,7694.76,3672.46,3822.72,199.58,1.55174e-06,0.0,0.0,0.0
455.7,20702.0,456.12,8639.09,-2948.96,12062.9,9113.95,4573.6,4482.91,57.4427,5.41328e-08,0.0,0.0,0.0
455.5,21489.0,455.9195,9556.17,-1444.18,11932.8,10488.7,5751.57,4724.58,12.4993,1.44704e-09,0.0,0.0,0.0
455.3,21873.0,455.7195,10079.6,-357.168,11793.4,11436.3,7225.08,4209.12,2.07705,2.95768e-11,0.0,0.0,0.0
455.1,22159.0,455.519,10513.4,209.808,11645.6,11855.4,8856.31,2998.87,0.265659,4.61992e-13,0.0,0.0,0.0
454.9,21779.0,455.32,10282.1,313.676,11496.9,11810.6,10168.2,1642.36,0.0262551,5.72356e-15,0.0,0.0,0.0
454.7,21680.0,455.12,10328.9,-339.084,11351.1,11012,10334.7,677.227,0.00200599,0.0,0.0,0.0,0.0
454.5,20832.0,454.9195,9623.67,-2251.12,11208.3,8957.21,8747.88,209.334,0.000118308,0.0,0.0,0.0,0.0
454.3,18245.0,454.7195,7158.91,-5184.05,11086.1,5902.04,5853.24,48.8026,5.37319e-06,0.0,0.0,0.0,0.0
454.1,14305.0,454.519,3292.71,-8013.91,11012.3,2998.38,2989.71,8.66756,1.87445e-07,0.0,0.0,0.0,0.0
453.9,12387.0,454.32,1406.97,-9831.87,10980,1148.17,1146.98,1.18296,5.01066e-09,0.0,0.0,0.0,0.0
453.7,11715.0,454.12,749.144,-10635.6,10965.9,330.246,330.122,0.124677,1.02415e-10,0.0,0.0,0.0,0.0
453.5,11625.0,453.9195,668.211,-10884.9,10956.8,71.8431,71.8329,0.0101598,1.59974e-12,0.0,0.0,0.0,0.0
453.3,11426.0,453.7195,477.284,-10936.8,10948.7,11.9374,11.9367,0.00063939,1.98189e-14,0.0,0.0,0.0,0.0
453.1,11337.0,453.519,394.385,-10941.1,10942.6,1.52677,1.52674,3.10067e-05,0.0,0.0,0.0,0.0,0.0
452.9,11296.0,453.32,358.826,-10937,10937.2,0.150888,0.150887,1.15569e-06,0.0,0.0,0.0,0.0,0.0
452.7,11206.0,453.12,273.32,-10932.7,10932.7,0.0115284,0.0115284,3.30264e-08,0.0,0.0,0.0,0.0,0.0
452.5,11035.0,452.9195,104.97,-10930,10930,0.000679914,0.000679913,7.22003e-10,0.0,0.0,0.0,0.0,0.0
452.3,11051.0,452.7195,123.207,-10927.8,10927.8,3.08796e-05,3.08796e-05,1.20487e-11,0.0,0.0,0.0,0.0,0.0
452.1,11067.0,452.519,141.231,-10925.8,10925.8,1.07724e-06,1.07724e-06,1.59457e-13,0.0,0.0,0.0,0.0,0.0
451.9,11147.0,452.32,223.52,-10923.5,10923.5,2.87961e-08,2.87961e-08,0.0,0.0,0.0,0.0,0.0,0.0
451.7,10977.0,452.12,55.9471,-10921.1,10921.1,5.88578e-10,5.88578e-10,0.0,0.0,0.0,0.0,0.0,0.0
451.5,11178.0,451.9195,259.796,-10918.2,10918.2,9.19365e-12,9.19365e-12,0.0,0.0,0.0,0.0,0.0,0.0
451.3,11108.0,451.7195,191.491,-10916.5,10916.5,1.13899e-13,1.13899e-13,0.0,0.0,0.0,0.0,0.0,0.0
451.1,10957.0,451.519,43.0,-10914.0,10914.0,0.0,0.0,0.0,0.0,0.0,0.0,0.0,0.0
450.9,10987.0,451.32,73.0,-10914.0,10914.0,0.0,0.0,0.0,0.0,0.0,0.0,0.0,0.0
450.7,11007.0,451.12,93.0,-10914.0,10914.0,0.0,0.0,0.0,0.0,0.0,0.0,0.0,0.0
450.5,11078.0,450.9195,164.0,-10914.0,10914.0,0.0,0.0,0.0,0.0,0.0,0.0,0.0,0.0
450.3,11176.0,450.7195,262.0,-10914.0,10914.0,0.0,0.0,0.0,0.0,0.0,0.0,0.0,0.0