Folder: python_code_MXene_VRFB/XPS/LG4X-result

Note: XPS/LG4X-result/HT-1-C1s.txt
LG4X: LMFit GUI for XPS curve fitting v2.0.4

[[Data file]]

/home/kevin/Desktop/KTH/master_thesis/XPS/Casa format/HT CP 19 Ap location C1 in image-0.6621_HTCP19ApC1s_C1s.txt

[[Fit results]]


	a1	v2	v3	v4	v5	v6
amplitude	22253.54	2388.9019	53.2758	1092.1213	1941.851	1000.0	
center	284.5	291.2	294.3896	285.1	286.2455	288.36	
sigma	0.1329	0.9421	0.3764	1.0	0.4024	0.7	
gamma	0.1852	0.6062	0.0	1.0	0.6372	0.7	
fwhm	nan	2.9372394	0.8863467	3.6012907	1.799181	2.5209033	
height	nan	646.9362	56.466442	227.93585	764.21875	298.15613	
fraction	nan	nan	nan	nan	nan	nan	
skew	0.1664	nan	nan	nan	nan	nan	
q	nan	nan	nan	nan	nan	nan	

[[LG4X parameters]]

[[[0], 295.6685, 277.6685, 1486.69, 4.5, -0.6685], [['', 1e-06, '', 10.0, 0, 0.001635216990277133, 0, 1.4483156896005767e-09, '', ''], [2, 2866.0, '', 1643.0, '', 1.0, '', 1.0, '', 50.0], [2, 0.0, 2, 0.0, 2, 0.0, 2, 0.0, 2, 0.0], [2, 0.0, 0, '', 0, '', 0, '', 0, ''], [0, '', 0, '', 0, '', 0, '', 0, ''], [0, '', 0, '', 0, '', 0, '', 0, ''], [0, '', 0, '', 0, '', 0, '', 0, '']], [['', 6, '', 2, '', 2, '', 2, '', 2, '', 2], [2, 284.5, 0, 291.2, 0, 294.3896, 0, 285.1, 0, 286.2455, 0, 288.36], [0, 22253.54, 0, 2388.9018, 0, 53.2758, 0, 1092.1213, 0, 1941.8509, 0, 1000.0], [0, 0.1852, 0, 0.6062, 0, 0.0, 0, 1.0, 0, 0.6372, 0, 0.7], [0, 0.1329, 0, 0.9421, 0, 0.3764, 0, 1.0, 0, 0.4024, 0, 0.7], [2, 0.02, 2, 0.02, 2, 0.02, 2, 0.02, 2, 0.02, 2, 0.02], [2, 0.0, 2, 0.0, 2, 0.0, 2, 0.0, 2, 0.0, 2, 0.0], [0, 0.1664, 2, 0.1273, 2, 0.1273, 2, 0.1273, 2, 0.1273, 2, 0.1273], [2, 0.0, 2, 0.0, 2, 0.0, 2, 0.0, 2, 0.0, 2, 0.0], [2, 0.026, 2, 0.026, 2, 0.026, 2, 0.026, 2, 0.026, 2, 0.026], [2, 1.0, 2, 1.0, 2, 1.0, 2, 1.0, 2, 1.0, 2, 1.0], [2, 0.7, 2, 0.7, 2, 0.7, 2, 0.7, 2, 0.7, 2, 0.7], [2, 1.0, 2, 1.0, 2, 1.0, 2, 1.0, 2, 1.0, 2, 1.0], ['', 0, '', 0, '', 0, '', 0, '', 0, '', 0], [2, 0.1, 2, 0.1, 2, 0.1, 2, 0.1, 2, 0.1, 2, 0.1], ['', 0, '', 0, '', 0, '', 0, '', 0, '', 0], [2, 0.5, 2, 0.5, 2, 0.5, 2, 0.5, 2, 0.5, 2, 0.5], ['', 0, '', 0, '', 0, '', 0, '', 0, '', 0], [2, 1.0, 2, 1.0, 2, 1.0, 2, 1.0, 2, 1.0, 2, 1.0], ['', 0, '', 0, '', 0, '', 0, '', 0, '', 0], [2, 1.0, 2, 1.0, 2, 1.0, 2, 1.0, 2, 1.0, 2, 1.0], ['', 0, '', 0, '', 0, '', 0, '', 0, '', 0], [2, 1.0, 2, 1.0, 2, 1.0, 2, 1.0, 2, 1.0, 2, 1.0], ['', 0, '', 0, '', 0, '', 0, '', 0, '', 0], [2, 1.0, 2, 1.0, 2, 1.0, 2, 1.0, 2, 1.0, 2, 1.0], ['', 0, '', 0, '', 0, '', 0, '', 0, '', 0], [2, 1.0, 2, 1.0, 2, 1.0, 2, 1.0, 2, 1.0, 2, 1.0]], [[2, 284.49, 284.5, 2, 290.4, 292.0, 2, 293.77, 295.2, 2, 284.8, 285.1, 2, 286.0, 287.0, 2, 287.0, 288.4], [0, '', '', 0, '', '', 0, '', '', 0, '', '', 0, '', '', 0, '', ''], [2, '', 1.0, 2, '', 1.0, 2, '', 1.0, 2, '', 1.0, 2, '', 1.0, 2, '', 0.7], [2, '', 1.0, 2, '', 1.0, 2, '', 1.0, 2, '', 1.0, 2, '', 1.0, 2, '', 0.7], [0, '', '', 0, '', '', 0, '', '', 0, '', '', 0, '', '', 0, '', ''], [0, '', '', 0, '', '', 0, '', '', 0, '', '', 0, '', '', 0, '', ''], [2, '', 1.0, 0, '', '', 0, '', '', 0, '', '', 0, '', '', 0, '', ''], [0, '', '', 0, '', '', 0, '', '', 0

Note: XPS/LG4X-result/HT-2-C1s.txt
LG4X: LMFit GUI for XPS curve fitting v2.0.4

[[Data file]]

/home/kevin/Desktop/KTH/master_thesis/XPS/Casa format/HT CP 19 Ap location C1 in image-0.6621_HTCP19ApC1s_C1s.txt

[[Fit results]]


	a1	v2	v3	v4	l5	v6
amplitude	22088.502	2630.9678	50.4576	368.1623	3095.2485	597.3105	
center	284.5	291.1632	294.2963	285.1	286.3502	288.4	
sigma	0.1362	0.8866	0.4033	0.3667	1.0	0.5213	
gamma	0.1804	0.8011	0.0	0.0973	nan	0.7	
fwhm	nan	3.0734682	0.9496908	0.97227484	2.0	2.1382	
height	nan	652.128	49.9124	328.0687	985.2483	201.94502	
fraction	nan	nan	nan	nan	nan	nan	
skew	0.1653	nan	nan	nan	nan	nan	
q	nan	nan	nan	nan	nan	nan	

[[LG4X parameters]]

[[[0], 295.6685, 277.6685, 1486.69, 4.5, -0.6685], [['', 1e-06, '', 10.0, 0, 0.001635216990277133, 0, 1.4483156896005767e-09, '', ''], [2, 2866.0, '', 1643.0, '', 1.0, '', 1.0, '', 50.0], [2, 0.0, 2, 0.0, 2, 0.0, 2, 0.0, 2, 0.0], [2, 0.0, 0, '', 0, '', 0, '', 0, ''], [0, '', 0, '', 0, '', 0, '', 0, ''], [0, '', 0, '', 0, '', 0, '', 0, ''], [0, '', 0, '', 0, '', 0, '', 0, '']], [['', 6, '', 2, '', 2, '', 2, '', 1, '', 2], [2, 284.5, 0, 291.1632, 0, 294.2963, 2, 285.1, 2, 286.3502, 0, 288.4], [0, 22088.5022, 0, 2630.9678, 0, 50.4576, 0, 368.1623, 0, 3095.2486, 0, 597.3105], [0, 0.1804, 0, 0.8011, 0, 0.0, 2, 0.0973, 2, 1.0, 0, 0.7], [0, 0.1362, 0, 0.8866, 0, 0.4033, 2, 0.3667, 0, 0.4024, 0, 0.5213], [2, 0.02, 2, 0.02, 2, 0.02, 2, 0.02, 2, 0.02, 2, 0.02], [2, 0.0, 2, 0.0, 2, 0.0, 2, 0.0, 2, 0.0, 2, 0.0], [0, 0.1653, 2, 0.1273, 2, 0.1273, 2, 0.1273, 2, 0.1273, 2, 0.1273], [2, 0.0, 2, 0.0, 2, 0.0, 2, 0.0, 2, 0.0, 2, 0.0], [2, 0.026, 2, 0.026, 2, 0.026, 2, 0.026, 2, 0.026, 2, 0.026], [2, 1.0, 2, 1.0, 2, 1.0, 2, 1.0, 2, 1.0, 2, 1.0], [2, 0.7, 2, 0.7, 2, 0.7, 2, 0.7, 2, 0.7, 2, 0.7], [2, 1.0, 2, 1.0, 2, 1.0, 2, 1.0, 2, 1.0, 2, 1.0], ['', 0, '', 0, '', 0, '', 0, '', 0, '', 0], [2, 0.1, 2, 0.1, 2, 0.1, 2, 0.1, 2, 0.1, 2, 0.1], ['', 0, '', 0, '', 0, '', 0, '', 0, '', 0], [2, 0.5, 2, 0.5, 2, 0.5, 2, 0.5, 2, 0.5, 2, 0.5], ['', 0, '', 0, '', 0, '', 0, '', 0, '', 0], [2, 1.0, 2, 1.0, 2, 1.0, 2, 1.0, 2, 1.0, 2, 1.0], ['', 0, '', 0, '', 0, '', 0, '', 0, '', 0], [2, 1.0, 2, 1.0, 2, 1.0, 2, 1.0, 2, 1.0, 2, 1.0], ['', 0, '', 0, '', 0, '', 0, '', 0, '', 0], [2, 1.0, 2, 1.0, 2, 1.0, 2, 1.0, 2, 1.0, 2, 1.0], ['', 0, '', 0, '', 0, '', 0, '', 0, '', 0], [2, 1.0, 2, 1.0, 2, 1.0, 2, 1.0, 2, 1.0, 2, 1.0], ['', 0, '', 0, '', 0, '', 0, '', 0, '', 0], [2, 1.0, 2, 1.0, 2, 1.0, 2, 1.0, 2, 1.0, 2, 1.0]], [[2, 284.49, 284.5, 2, 290.4, 292.0, 2, 293.77, 295.2, 2, 284.8, 285.1, 2, 286.0, 287.0, 2, 287.0, 288.4], [0, '', '', 0, '', '', 0, '', '', 0, '', '', 0, '', '', 0, '', ''], [2, '', 1.0, 2, '', 1.0, 2, '', 1.0, 2, 0.0972, 0.0973, 2, '', 1.0, 2, '', 0.7], [2, '', 1.0, 2, '', 1.0, 2, '', 1.0, 2, '', 1.0, 2, '', 1.0, 2, '', 0.7], [0, '', '', 0, '', '', 0, '', '', 0, '', '', 0, '', '', 0, '', ''], [0, '', '', 0, '', '', 0, '', '', 0, '', '', 0, '', '', 0, '', ''], [2, '', 1.0, 0, '', '', 0, '', '', 0, '', '', 0, '', '', 0, '', ''], [0, '', '', 0, '', ''

File: HT-1-C1s.csv
#No of rows lightened (2D detector)1(if not using 2D detector, value is 1 and can be ignored!)
raw_x,raw_y,corrected x,data-bg,sum_components,bg,sum_fit,C=C,pi-pi*,pi-pi*2,C-C,C-O,C=O
295.0,852.0,295.6685,0.0,-792.486,852.0,59.5136,21.0376,26.4408,0.175768,3.16967,4.43964,4.2502
294.8,922.0,295.468,70.2504,-787.14,851.75,64.6099,21.8119,29.4422,0.92832,3.29551,4.63445,4.49762
294.6,925.0,295.268,73.5408,-779.064,851.459,72.3948,22.6298,33.0293,3.69691,3.42905,4.84238,4.76745
294.4,950.0,295.069,99.1175,-765.218,850.882,85.6648,23.4945,37.3711,11.1011,3.57094,5.06462,5.06251
294.2,951.0,294.869,100.686,-743.662,850.314,106.652,24.4098,42.6966,25.1348,3.72189,5.30252,5.38608
294.0,986.0,294.6685,136.435,-716.779,849.565,132.787,25.3796,49.3137,42.9111,3.8827,5.5576,5.74199
293.8,1008.0,294.468,159.283,-693.417,848.717,155.3,26.4084,57.6318,55.2394,4.05424,5.83154,6.13472
293.6,1047.0,294.268,199.299,-681.465,847.701,166.235,27.5011,68.1827,53.6183,4.23751,6.12626,6.56961
293.4,999.0,294.069,152.3,-679.229,846.7,167.471,28.663,81.6346,39.243,4.43361,6.4439,7.05298
293.2,1084.0,293.869,238.425,-676.206,845.575,169.369,29.9001,98.7894,21.6568,4.64377,6.78692,7.5924
293.0,1048.0,293.6685,203.544,-663.45,844.456,181.006,31.2191,120.551,9.01183,4.8694,7.15808,8.19702
292.8,1067.0,293.468,223.829,-638.317,843.171,204.854,32.6273,147.849,2.82758,5.11206,7.56055,8.87792
292.6,1120.0,293.268,278.205,-602.461,841.795,239.334,34.1331,181.512,0.668963,5.37352,7.99797,9.64872
292.4,1123.0,293.069,282.83,-557.559,840.17,282.61,35.7455,222.089,0.119337,5.65581,8.47449,10.5263
292.2,1151.0,292.869,312.52,-504.877,838.48,333.602,37.4749,269.624,0.016052,5.96123,8.99493,11.5316
292.0,1256.0,292.6685,419.597,-445.085,836.403,391.318,39.333,323.434,0.00162806,6.29241,9.56485,12.6913
291.8,1262.0,292.468,428.032,-379.818,833.968,454.149,41.3328,381.934,0.000124508,6.65237,10.1907,14.0394
291.6,1384.0,292.268,552.674,-311.733,831.326,519.593,43.4891,442.559,7.1797e-06,7.0446,10.8802,15.6201
291.4,1443.0,292.069,614.894,-243.82,828.106,584.286,45.8186,501.861,3.12177e-07,7.47314,11.642,17.4914
291.2,1474.0,291.869,649.394,-180.318,824.606,644.288,48.3405,555.787,1.02348e-08,7.94267,12.4869,19.7308
291.0,1565.0,291.6685,744.437,-125.024,820.563,695.539,51.0765,600.133,2.53013e-10,8.45872,13.4272,22.4431
290.8,1607.0,291.468,790.753,-81.8108,816.247,734.436,54.0516,631.107,4.71619e-12,9.02773,14.478,25.7716
290.6,1561.0,291.268,749.045,-53.5411,811.955,758.413,57.2944,645.892,6.62864e-14,9.65738,15.6572,29.9126
290.4,1634.0,291.069,826.451,-41.1345,807.549,766.414,60.8381,643.097,7.02493e-16,10.3568,16.9867,35.135
290.2,1566.0,290.869,762.705,-44.155,803.295,759.14,64.7211,622.989,5.61363e-18,11.1368,18.4931,41.8002
290.0,1468.0,290.6685,668.766,-60.2055,799.234,739.028,68.9881,587.442,3.38244e-20,12.0108,20.2093,50.3777
289.8,1481.0,290.468,685.713,-85.3427,795.287,709.945,73.6915,539.638,1.53674e-22,12.9946,22.1762,61.4446
289.6,1493.0,290.268,701.629,-114.715,791.371,676.656,78.8929,483.561,5.2645e-25,14.1079,24.4452,75.6487
289.4,1449.0,290.069,661.627,-143.21,787.373,644.163,84.6653,423.426,1.35987e-27,15.3749,27.0812,93.6155
289.2,1374.0,289.869,590.145,-166.847,783.855,617.007,91.0952,363.137,2.64864e-30,16.8256,30.1682,115.781
289.0,1392.0,289.6685,611.66,-181.697,780.34,598.644,98.2867,305.884,3.88984e-33,18.4972,33.8149,142.161
288.8,1399.0,289.468,622.201,-185.817,776.799,590.982,106.365,253.924,4.30751e-36,20.4364,38.1651,172.092
288.6,1348.0,289.268,574.594,-179.227,773.406,594.179,115.482,208.546,3.59671e-39,22.7014,43.4118,204.038
288.4,1341.0,289.069,571.033,-163.215,769.967,606.752,125.823,170.18,2.26448e-42,25.3645,49.8182,235.566
288.2,1349.0,288.869,582.316,-140.626,766.684,626.058,137.62,138.598,1.07502e-45,28.5151,57.7503,263.575
288.0,1391.0,288.6685,627.726,-114.191,763.274,649.083,151.157,113.142,3.84812e-49,32.2615,67.7275,284.796
287.8,1430.0,288.468,670.353,-86.2238,759.647,673.424,166.795,92.9328,1.03864e-52,36.7329,80.5018,296.461
287.6,1473.0,288.268,717.197,-57.5643,755.803,698.239,184.992,77.0381,2.11382e-56,42.0787,97.1802,296.95
287.4,1450.0,288.069,698.311,-26.7059,751.689,724.983,206.34,64.5805,3.2438e-60,48.4644,119.407,286.191
287.2,1516.0,287.869,768.449,10.2043,747.551,757.755,231.609,54.7985,3.7534e-64,56.0634,149.597,265.687
287.0,1605.0,287.6685,862.048,60.2335,742.952,803.185,261.821,47.0674,3.27476e-68,65.0424,191.125,238.13
286.8,1599.0,287.468,860.983,131.709,738.017,869.727,298.347,40.8961,2.15437e-72,75.5399,248.17,206.774
286.6,1758.0,287.268,1025.42,233.418,732.575,965.993,343.062,35.9095,1.06867e-76,87.6383,324.626,174.757
286.4,1905.0,287.069,1178.69,371.452,726.311,1097.76,398.57,31.8269,3.99718e-81,101.331,421.453,144.582
286.2,1922.0,286.869,1202.59,544.647,719.413,1264.06,468.552,28.4402,1.12732e-85,116.487,532.717,117.864
286.0,2176.0,286.6685,1464.21,742.908,711.788,1454.7,558.314,25.5956,2.39732e-90,132.825,642.629,95.3325
285.8,2329.0,286.468,1625.94,950.116,703.059,1653.18,675.684,23.1792,3.84404e-95,149.892,727.398,77.0216
285.6,2527.0,286.268,1833.99,1154.08,693.012,1847.09,832.579,21.1056,4.64767e-100,167.07,763.814,62.5206
285.4,2727.0,286.069,2045.04,1360.8,681.96,2042.76,1047.91,19.3102,4.23709e-105,183.594,740.728,51.2128
285.2,2970.0,285.869,2300.51,1608.16,669.491,2277.65,1353.56,17.7433,2.91262e-110,198.613,665.288,42.4475
285.0,3313.0,285.6685,2657.53,1974.55,655.471,2630.02,1807.86,16.3663,1.50968e-115,211.258,558.892,35.6396
284.8,3810.0,285.468,3171.13,2603.92,638.866,3242.79,2530.43,15.1485,5.90026e-121,220.733,446.171,30.3101
284.6,5053.0,285.268,4435.3,3801.08,617.704,4418.78,3807.06,14.0657,1.73877e-126,226.406,345.167,26.0887
284.4,7443.0,285.069,6856.4,6410.38,586.604,6996.98,6469.37,13.0979,3.86364e-132,227.882,263.928,22.6997
284.2,14370.0,284.869,13840.6,12998.9,529.418,13528.3,13068.4,12.2291,6.47346e-138,225.059,202.712,19.9413
284.0,25946.0,284.6685,25527.5,25435.8,418.514,25854.3,25449.1,11.4458,8.17825e-144,218.133,158.003,17.6661
283.8,28438.0,284.468,28179.5,27741.3,258.523,27999.8,27640.2,10.737,7.79057e-150,207.582,125.54,15.7669
283.6,13932.0,284.268,13795,13637.5,136.952,13774.4,13454.4,10.0933,5.5958e-156,194.098,101.728,14.164
283.4,4350.0,284.069,4260.51,4497.53,89.4906,4587.02,4302.27,9.50674,3.03068e-162,178.51,83.9426,12.798
283.2,1774.0,283.869,1700.19,1648.49,73.8146,1722.3,1469.63,8.97074,1.23766e-168,161.691,70.3845,11.6237
283.0,1007.0,283.6685,940.452,736.637,66.5475,803.185,579.786,8.47953,3.8111e-175,144.472,59.8411,10.6064
282.8,627.0,283.468,564.621,380.922,62.3788,443.3,246.487,8.02816,8.84874e-182,127.575,51.4915,9.71889
282.6,388.0,283.268,328.158,220.823,59.8422,280.665,107.773,7.61239,1.54917e-188,111.569,44.7713,8.93973
282.4,299.0,283.069,240.718,140.541,58.2823,198.823,47.2078,7.22852,2.04503e-195,96.8507,39.2842,8.25175
282.2,220.0,282.869,162.822,96.123,57.1777,153.301,20.3863,6.87332,2.03556e-202,83.6529,34.747,7.64112
282.0,184.0,282.6685,127.641,68.8858,56.3586,125.244,8.58821,6.54397,1.52776e-209,72.0629,30.9528,7.09653
281.8,161.0,282.468,105.284,50.4382,55.7157,106.154,3.50358,6.238,8.64587e-217,62.0559,27.7478,6.60872
281.6,144.0,282.268,88.8852,36.9297,55.1148,92.0445,1.37669,5.95322,3.68933e-224,53.5283,25.0162,6.16997
281.4,140.0,282.069,85.3515,26.3315,54.6485,80.98,0.518951,5.6877,1.18706e-231,46.3302,22.6692,5.77387
281.2,119.0,281.869,64.7849,17.7552,54.2151,71.9703,0.187077,5.43972,2.87992e-239,40.2907,20.6378,5.41502
281.0,108.0,281.6685,54.0869,10.5533,53.9131,64.4664,0.0643348,5.20776,5.26833e-247,35.2375,18.8679,5.08886
280.8,104.0,281.468,50.3693,4.49835,53.6307,58.129,0.0210638,4.99045,7.26692e-255,31.0097,17.3164,4.79151
280.6,90.0,281.268,36.6134,-0.661124,53.3866,52.7254,0.00655515,4.78658,7.55809e-263,27.4639,15.9488,4.51964
280.4,85.0,281.069,31.775,-5.14289,53.225,48.0821,0.00193641,4.59505,5.92733e-271,24.4777,14.7371,4.27042
280.2,73.0,280.869,19.9161,-9.01993,53.0839,44.064,0.00054236,4.41487,3.50502e-279,21.9487,13.6585,4.04138
280.0,79.0,280.6685,26.0892,-12.3474,52.9108,40.5633,0.000143891,4.24517,1.56281e-287,19.7934,12.6942,3.83038
279.8,81.0,280.468,28.2207,-15.2858,52.7793,37.4935,3.6131e-05,4.08513,5.2542e-296,17.9442,11.8286,3.63557
279.6,75.0,280.268,22.3643,-17.8509,52.6357,34.7847,8.58061e-06,3.93404,1.33196e-304,16.3467,11.0486,3.45533
279.4,74.0,280.069,21.4903,-20.1293,52.5097,32.3804,1.92611e-06,3.79123,2.54602e-313,14.9575,10.3434,3.28823
279.2,73.0,279.869,20.5884,-22.177,52.4116,30.2346,4.08444e-07,3.6561,2.77e-322,13.7419,9.70359,3.13302
279.0,73.0,279.6685,20.7114,-23.9788,52.2886,28.3098,8.17846e-08,3.52812,0.0,12.6717,9.12141,2.9886
278.8,60.0,279.468,7.77952,-25.6452,52.2205,26.5753,1.54566e-08,3.40678,0.0,11.7244,8.59012,2.85397
278.6,56.0,279.268,3.82667,-27.1678,52.1733,25.0055,2.75613e-09,3.29163,0.0,10.8817,8.10394,2.72828
278.4,72.0,279.069,19.9054,-28.5154,52.0946,23.5792,4.6354e-10,3.18225,0.0,10.1283,7.65792,2.61074
278.2,62.0,278.869,9.95895,-29.7624,52.0411,22.2786,7.351e-11,3.07826,0.0,9.45198,7.24775,2.50066
278.0,61.0,278.6685,9.0,-30.9112,52.0,21.0888,1.09874e-11,2.97931,0.0,8.84234,6.86968,2.39743
277.8,67.0,278.468,15.0,-32.0032,52.0,19.9968,1.54618e-12,2.88508,0.0,8.29077,6.52045,2.30048
277.6,65.0,278.268,13.0,-33.0082,52.0,18.9918,2.06389e-13,2.79527,0.0,7.79003,6.1972,2.20931
277.4,56.0,278.069,4.0,-33.9355,52.0,18.0645,2.46587e-14,2.70961,0.0,7.33396,5.89741,2.12347
277.2,68.0,277.869,16.0,-34.7934,52.0,17.2066,3.3133e-15,2.62785,0.0,6.91734,5.61887,2.04256
277.0,58.0,277.6685,6.0,-35.5888,52.0,16.4112,0.0,2.54975,0.0,6.53568,5.35961,1.96619

File: HT-2-C1s.csv
#No of rows lightened (2D detector)1(if not using 2D detector, value is 1 and can be ignored!)
raw_x,raw_y,corrected x,data-bg,sum_components,bg,sum_fit,C=C,pi-pi,pi-pi2,C-C,C-O,C=O
295.0,852.0,295.6685,0.0,-781.364,852.0,70.6364,20.3411,36.2877,0.152896,0.10245,11.2176,2.53469
294.8,922.0,295.468,70.2504,-775.303,851.75,76.4466,21.0898,40.1293,0.730765,0.106456,11.7092,2.6811
294.6,925.0,295.268,73.5408,-767.022,851.459,84.437,21.8806,44.6403,2.73121,0.110701,12.2336,2.8406
294.4,950.0,295.069,99.1175,-754.272,850.882,96.6101,22.7167,49.9871,7.98228,0.115205,12.794,3.0148
294.2,951.0,294.869,100.686,-735.363,850.314,114.951,23.6018,56.3872,18.243,0.119991,13.3935,3.20557
294.0,986.0,294.6685,136.435,-710.722,849.565,138.843,24.5395,64.1242,32.6032,0.125081,14.0361,3.41509
293.8,1008.0,294.468,159.283,-685.553,848.717,163.165,25.5343,73.5644,45.5638,0.130503,14.7257,3.64591
293.6,1047.0,294.268,199.299,-666.638,847.701,181.063,26.5909,85.1738,49.794,0.136286,15.4671,3.90101
293.4,999.0,294.069,152.3,-656.311,846.7,190.389,27.7144,99.5293,42.5529,0.142463,16.2657,4.18395
293.2,1084.0,293.869,238.425,-649.135,845.575,196.44,28.9106,117.318,28.4366,0.14907,17.1274,4.49894
293.0,1048.0,293.6685,203.544,-637.032,844.456,207.425,30.186,139.313,14.8601,0.156148,18.0589,4.85102
292.8,1067.0,293.468,223.829,-614.757,843.171,228.413,31.5477,166.315,6.07241,0.163744,19.068,5.24628
292.6,1120.0,293.268,278.205,-581.771,841.795,260.024,33.0037,199.052,1.94042,0.171909,20.1635,5.6921
292.4,1123.0,293.069,282.83,-539.363,840.17,300.807,34.5629,238.026,0.484874,0.180702,21.3555,6.19755
292.2,1151.0,292.869,312.52,-489.209,838.48,349.27,36.2352,283.321,0.094745,0.190189,22.6555,6.77378
292.0,1256.0,292.6685,419.597,-432.242,836.403,404.161,38.032,334.402,0.014477,0.200444,24.0769,7.43472
291.8,1262.0,292.468,428.032,-370.02,833.968,463.948,39.9657,389.936,0.00172981,0.211554,25.6351,8.19791
291.6,1384.0,292.268,552.674,-304.917,831.326,526.409,42.0509,447.701,0.000161627,0.223617,27.348,9.0857
291.4,1443.0,292.069,614.894,-239.572,828.106,588.534,44.3035,504.63,1.18094e-05,0.236745,29.2368,10.1269
291.2,1474.0,291.869,649.394,-177.892,824.606,646.714,46.7422,557.035,6.74735e-07,0.251067,31.3258,11.3592
291.0,1565.0,291.6685,744.437,-123.437,820.563,697.126,49.388,600.994,3.01465e-08,0.266734,33.6442,12.8324
290.8,1607.0,291.468,790.753,-79.9982,816.247,736.249,52.265,632.859,1.05326e-09,0.283919,36.2264,14.614
290.6,1561.0,291.268,749.045,-50.5435,811.955,761.411,55.4009,649.798,2.8776e-11,0.302827,39.1132,16.796
290.4,1634.0,291.069,826.451,-36.2939,807.549,771.255,58.8279,650.243,6.14783e-13,0.323697,42.3538,19.5064
290.2,1566.0,290.869,762.705,-37.2807,803.295,766.014,62.5829,634.152,1.02709e-14,0.346809,46.0073,22.9257
290.0,1468.0,290.6685,668.766,-51.6813,799.234,747.552,66.7095,603.016,1.34181e-16,0.372501,50.1457,27.3088
289.8,1481.0,290.468,685.713,-76.1461,795.287,719.141,71.2581,559.611,1.37079e-18,0.401172,54.8567,33.0139
289.6,1493.0,290.268,701.629,-106.318,791.371,685.053,76.2884,507.555,1.09508e-20,0.433303,60.2485,40.5277
289.4,1449.0,290.069,661.627,-137.338,787.373,650.035,81.871,450.769,6.84093e-23,0.469479,66.4552,50.4706
289.2,1374.0,289.869,590.145,-165.106,783.855,618.749,88.0897,392.965,3.34181e-25,0.510412,73.6445,63.5388
289.0,1392.0,289.6685,611.66,-185.127,780.34,595.214,95.045,337.249,1.27657e-27,0.556981,82.028,80.3343
288.8,1399.0,289.468,622.201,-194.52,776.799,582.279,102.858,285.891,3.81331e-30,0.61028,91.875,101.045
288.6,1348.0,289.268,574.594,-192.242,773.406,581.163,111.676,240.269,8.90751e-33,0.671681,103.531,125.015
288.4,1341.0,289.069,571.033,-178.764,769.967,591.203,121.679,200.958,1.62707e-35,0.742931,117.443,150.38
288.2,1349.0,288.869,582.316,-156.641,766.684,610.043,133.09,167.901,2.32409e-38,0.826281,134.196,174.03
288.0,1391.0,288.6685,627.726,-128.843,763.274,634.432,146.184,140.611,2.59594e-41,0.924671,154.561,192.151
287.8,1430.0,288.468,670.353,-98.0807,759.647,661.567,161.312,118.371,2.26742e-44,1.042,179.554,201.288
287.6,1473.0,288.268,717.197,-65.2585,755.803,690.545,178.917,100.379,1.5487e-47,1.18357,210.529,199.536
287.4,1450.0,288.069,698.311,-28.364,751.689,723.325,199.57,85.8601,8.27172e-51,1.35666,249.269,187.269
287.2,1516.0,287.869,768.449,17.2394,747.551,764.79,224.019,74.1206,3.45479e-54,1.57164,298.087,166.992
287.0,1605.0,287.6685,862.048,78.9794,742.952,821.931,253.249,64.5781,1.12835e-57,1.84364,359.853,142.406
286.8,1599.0,287.468,860.983,164.499,738.017,902.517,288.588,56.7609,2.88178e-61,2.19559,437.772,117.2
286.6,1758.0,287.268,1025.42,280.856,732.575,1013.43,331.843,50.2977,5.75537e-65,2.66399,534.51,94.1169
286.4,1905.0,287.069,1178.69,431.958,726.311,1158.27,385.52,44.901,8.98841e-69,3.31093,649.919,74.6176
286.2,1922.0,286.869,1202.59,614.008,719.413,1333.42,453.152,40.3503,1.09771e-72,4.25385,776.621,59.0439
286.0,2176.0,286.6685,1464.21,811.908,711.788,1523.7,539.819,36.4767,1.04831e-76,5.75566,894.611,47.0346
285.8,2329.0,286.468,1625.94,1001.2,703.059,1704.26,653.003,33.1504,7.82863e-81,8.52927,971.65,37.9305
285.6,2527.0,286.268,1833.99,1165.78,693.012,1858.79,804.091,30.2712,4.57171e-85,14.6654,978.715,31.0474
285.4,2727.0,286.069,2045.04,1325.24,681.96,2007.2,1011.19,27.7606,2.0877e-89,29.6262,912.812,25.8048
285.2,2970.0,285.869,2300.51,1546.41,669.491,2215.9,1304.97,25.5571,7.45508e-94,63.9264,799.692,21.7585
285.0,3313.0,285.6685,2657.53,1929.88,655.471,2585.35,1741.91,23.6116,2.08177e-98,128.581,672.655,18.586
284.8,3810.0,285.468,3171.13,2611.31,638.866,3250.18,2438.81,21.8844,4.54579e-103,219.109,554.322,16.0586
284.6,5053.0,285.268,4435.3,3850.05,617.704,4467.76,3678.19,20.3435,7.76216e-108,301.198,454.016,14.0146
284.4,7443.0,285.069,6856.4,6442.08,586.604,7028.68,6297.48,18.9626,1.03646e-112,327.087,372.811,12.3387
284.2,14370.0,284.869,13840.6,12989.4,529.418,13518.8,12902.5,17.7199,1.08222e-117,279.324,308.33,10.9477
284.0,25946.0,284.6685,25527.5,25405,418.514,25823.5,25350.5,16.5973,8.8364e-123,189.284,257.372,9.7803
283.8,28438.0,284.468,28179.5,27751.4,258.523,28009.9,27663.9,15.5796,5.64198e-128,104.678,216.977,8.79101
283.6,13932.0,284.268,13795,13693.8,136.952,13830.7,13573.2,14.6539,2.81698e-133,50.2509,184.729,7.94523
283.4,4350.0,284.069,4260.51,4459.3,89.4906,4548.79,4345.59,13.8093,1.09985e-138,23.4208,158.753,7.2164
283.2,1774.0,283.869,1700.19,1582.65,73.8146,1656.47,1487.08,13.0365,3.35796e-144,12.1333,137.627,6.58385
283.0,1007.0,283.6685,940.452,672.611,66.5475,739.158,593.087,12.3275,8.01706e-150,7.43587,120.277,6.03127
282.8,627.0,283.468,564.621,322.458,62.3788,384.837,256.529,11.6754,1.49676e-155,5.19411,105.893,5.5457
282.6,388.0,283.268,328.158,168.766,59.8422,228.608,114.643,11.0742,2.18516e-161,3.91365,93.8611,5.11669
282.4,299.0,283.069,240.718,95.2993,58.2823,153.582,51.5331,10.5187,2.49465e-167,3.08242,83.7116,4.73576
282.2,220.0,282.869,162.822,57.7308,57.1777,114.908,22.925,10.0044,2.22707e-173,2.50083,75.0823,4.39597
282.0,184.0,282.6685,127.641,37.0123,56.3586,93.3709,9.98618,9.52713,1.55472e-179,2.07425,67.6918,4.09158
281.8,161.0,282.468,105.284,24.4834,55.7157,80.1991,4.22817,9.08352,8.48728e-186,1.75062,61.319,3.81783
281.6,144.0,282.268,88.8852,16.1447,55.1148,71.2595,1.73077,8.67042,3.6231e-192,1.49861,55.789,3.57073
281.4,140.0,282.069,85.3515,9.926,54.6485,64.5745,0.68219,8.28507,1.20945e-198,1.29818,50.9621,3.34692
281.2,119.0,281.869,64.7849,4.97362,54.2151,59.1887,0.258106,7.92503,3.15711e-205,1.13597,46.726,3.14356
281.0,108.0,281.6685,54.0869,0.719052,53.9131,54.6321,0.0935073,7.58811,6.4445e-212,1.00271,42.9896,2.95823
280.8,104.0,281.468,50.3693,-2.96711,53.6307,50.6636,0.0323731,7.27236,1.02869e-218,0.891842,39.6782,2.78885
280.6,90.0,281.268,36.6134,-6.23708,53.3866,47.1495,0.0106932,6.97604,1.28403e-225,0.798559,36.7305,2.63364
280.4,85.0,281.069,31.775,-9.21782,53.225,44.0072,0.00336537,6.69757,1.25332e-232,0.7193,34.0959,2.49106
280.2,73.0,280.869,19.9161,-11.9043,53.0839,41.1797,0.00100801,6.43553,9.56631e-240,0.651368,31.732,2.35977
280.0,79.0,280.6685,26.0892,-14.2872,52.9108,38.6235,0.000287071,6.18866,5.70983e-247,0.592688,29.6033,2.23861
279.8,81.0,280.468,28.2207,-16.4753,52.7793,36.304,7.76694e-05,5.9558,2.665e-254,0.541643,27.6799,2.12656
279.6,75.0,280.268,22.3643,-18.4436,52.6357,34.192,1.99499e-05,5.73591,9.72675e-262,0.496955,25.9364,2.02274
279.4,74.0,280.069,21.4903,-20.2464,52.5097,32.2633,4.86175e-06,5.52803,2.77609e-269,0.457607,24.3513,1.92634
279.2,73.0,279.869,20.5884,-21.9147,52.4116,30.4969,1.12351e-06,5.3313,6.19578e-277,0.422775,22.9061,1.83669
279.0,73.0,279.6685,20.7114,-23.4138,52.2886,28.8748,2.46084e-07,5.14493,1.08132e-284,0.391792,21.585,1.75315
278.8,60.0,279.468,7.77952,-24.8388,52.2205,27.3817,5.10667e-08,4.96821,1.47574e-292,0.364107,20.3741,1.6752
278.6,56.0,279.268,3.82667,-26.1695,52.1733,26.0038,1.00364e-08,4.80047,1.57492e-300,0.339268,19.2618,1.60234
278.4,72.0,279.069,19.9054,-27.3649,52.0946,24.7297,1.86749e-09,4.64113,1.31433e-308,0.316895,18.2375,1.53414
278.2,62.0,278.869,9.95895,-28.4922,52.0411,23.5489,3.2889e-10,4.48962,8.577217e-317,0.296672,17.2924,1.47021
278.0,61.0,278.6685,9.0,-29.5476,52.0,22.4524,5.48099e-11,4.34543,0.0,0.27833,16.4185,1.41019
277.8,67.0,278.468,15.0,-30.5676,52.0,21.4324,8.64148e-12,4.20811,0.0,0.261644,15.6088,1.35378
277.6,65.0,278.268,13.0,-31.5183,52.0,20.4817,1.28814e-12,4.07722,0.0,0.246418,14.8573,1.30069
277.4,56.0,278.069,4.0,-32.4059,52.0,19.5941,1.80533e-13,3.95236,0.0,0.232487,14.1586,1.25067
277.2,68.0,277.869,16.0,-33.2358,52.0,18.7642,2.56305e-14,3.83316,0.0,0.219708,13.5078,1.20348
277.0,58.0,277.6685,6.0,-34.0132,52.0,17.9868,3.01888e-15,3.7193,0.0,0.207957,12.9007,1.15892