Folder: python_code_MXene_VRFB/XPS/LG4X-result (part 3)

File: MX-HT-0.5-Ti2p_2.csv
#No of rows lightened (2D detector)1(if not using 2D detector, value is 1 and can be ignored!)
raw_x,raw_y,corrected x,data-bg,sum_components,bg,sum_fit,C_1,C_2,C_3,C_4,C_5,C_6,C_7,C_8
470.0,366.0,470.6318,366.0,144.629,0.0,144.629,12.1199,10.7231,10.7469,22.0938,68.6187,8.73552,7.97819,3.61318
469.7,415.0,470.332,415.0,153.32,0.0,153.32,12.7888,11.2155,11.2019,22.9709,73.1277,9.36136,8.64214,4.01168
469.4,363.0,470.0318,363.0,162.868,0.0,162.868,13.5145,11.7426,11.6865,23.9014,78.0941,10.0567,9.39217,4.47966
469.1,313.0,469.7318,313.0,173.396,0.0,173.396,14.3038,12.3078,12.2031,24.8894,83.5818,10.8322,10.2438,5.03418
468.8,140.0,469.432,140.0,185.054,0.0,185.054,15.1641,12.9147,12.7548,25.9401,89.6659,11.7005,11.216,5.69785
468.5,212.0,469.1318,212.0,198.022,0.0,198.022,16.1043,13.5675,13.3447,27.0586,96.4357,12.6772,12.3326,6.50116
468.2,195.0,468.832,195.0,212.521,0.0,212.521,17.1347,14.2711,13.9765,28.251,103.997,13.7807,13.6235,7.4859
467.9,87.0,468.5318,87.0,228.826,0.0,228.826,18.267,15.0307,14.6542,29.524,112.479,15.0341,15.1267,8.71067
467.6,104.403,468.2318,104.403,247.285,0.0,247.285,19.5151,15.8526,15.3824,30.885,122.034,16.4656,16.891,10.2595
467.3,63.83,467.932,63.83,268.345,0.0,268.345,20.8954,16.7436,16.1661,32.3422,132.852,18.1102,18.9798,12.2562
467.0,104.399,467.6318,104.399,292.595,0.0,292.595,22.4272,17.7119,17.0113,33.9049,145.161,20.0122,21.4772,14.8891
466.7,125.756,467.332,125.756,320.834,0.0,320.834,24.1334,18.7664,17.9244,35.5837,159.248,22.2279,24.4955,18.4547
466.4,250.21,467.0318,250.21,354.188,0.0,354.188,26.0414,19.9178,18.9131,37.3901,175.468,24.8293,28.1882,23.44
466.1,271.986,466.7318,271.986,394.319,0.0,394.319,28.1845,21.1783,19.9857,39.3377,194.268,27.9107,32.7685,30.6852
465.8,275.147,466.432,275.147,443.835,0.0,443.835,30.6025,22.562,21.1521,41.4413,216.218,31.5962,38.5392,41.7233
465.5,484.191,466.1318,484.191,507.145,0.0,507.145,33.3446,24.0856,22.4235,43.7181,242.048,36.0524,45.9403,59.5327
465.2,708.405,465.832,708.405,592.339,0.0,592.339,36.471,25.7686,23.813,46.1877,272.704,41.5063,55.6286,90.2596
464.9,821.361,465.5318,821.361,715.002,0.0,715.002,40.057,27.6337,25.3355,48.8724,309.426,48.2737,68.6124,146.791
464.6,940.204,465.2318,940.204,900.017,0.0,900.017,44.1966,29.7084,27.0086,51.7979,353.844,56.8023,86.4894,250.17
464.3,1169.69,464.932,1169.69,1132.3,0.0,1132.3,49.0096,32.025,28.8528,54.9939,408.118,67.7422,111.871,379.687
464.0,1146.36,464.6318,1146.36,1252.4,0.0,1252.4,54.6493,34.6225,30.8922,58.4947,475.127,82.0614,149.146,367.403
463.7,1267.13,464.332,1267.13,1294.73,0.0,1294.73,61.3155,37.5482,33.1553,62.3403,558.708,101.241,205.758,234.661
463.4,1563.99,464.0318,1563.99,1435.6,0.0,1435.6,69.2713,40.8594,35.676,66.5776,663.994,127.617,293.724,137.879
463.1,1742.71,463.7318,1742.71,1709.23,0.0,1709.23,78.8693,44.6267,38.4947,71.2613,797.842,164.968,427.664,85.5023
462.8,2012.52,463.432,2012.52,2105.4,0.0,2105.4,90.5903,48.9375,41.6604,76.4566,969.402,219.547,601.954,56.8503
462.5,2542.39,463.1318,2542.39,2547.04,0.0,2547.04,105.103,53.9009,45.2321,82.2404,1190.73,301.649,728.081,40.1025
462.2,2960.26,462.832,2960.26,2932.57,0.0,2932.57,123.356,59.6547,49.2823,88.705,1477.06,426.876,677.995,29.6439
461.9,3516.65,462.532,3516.65,3350.38,0.0,3350.38,146.735,66.375,53.9,95.9615,1845.17,610.758,508.738,22.736
461.6,3899.24,462.232,3899.24,3922.66,0.0,3922.66,177.314,74.2892,59.1961,104.144,2304.48,833.858,351.42,17.9585
461.3,4347.5,461.932,4347.5,4537.49,0.0,4537.49,218.308,83.6953,65.3098,113.418,2826.82,972.384,243.025,14.5272
461.0,4964.33,461.6318,4964.33,4916.57,0.0,4916.57,274.878,94.9892,72.4175,123.984,3276.04,889.064,173.213,11.9846
460.7,4657.44,461.332,4657.44,4846.38,0.0,4846.38,355.673,108.706,80.7461,136.095,3355.38,671.872,127.862,10.0506
460.4,4360.87,461.032,4360.87,4257.11,0.0,4257.11,475.86,125.582,90.5904,150.065,2837.1,471.876,97.486,8.54677
460.1,3452.05,460.732,3452.05,3457.52,0.0,3457.52,663.288,146.649,102.339,166.294,1963.74,331.428,76.4289,7.35499
459.8,2863.09,460.432,2863.09,2931.88,0.0,2931.88,970.759,173.393,116.514,185.296,1179.08,239.091,61.3516,6.39498
459.5,3015.08,460.1318,3015.08,2933.6,0.0,2933.6,1494.99,208,133.825,207.737,655.099,178.094,50.2407,5.61058
459.2,3617.92,459.832,3617.92,3535.4,0.0,3535.4,2358.61,253.784,155.262,234.495,349.726,136.711,41.8443,4.96159
458.9,4435.13,459.532,4435.13,4480.32,0.0,4480.32,3385.79,315.932,182.231,266.746,182.11,107.739,35.3591,4.41865
458.6,4712.62,459.232,4712.62,4672.86,0.0,4672.86,3533.26,402.847,216.785,306.095,92.8188,86.8372,30.2538,3.95992
458.3,3862.49,458.932,3862.49,3876.76,0.0,3876.76,2584.01,528.645,262.005,354.769,46.2495,71.341,26.1675,3.56889
458.0,3227.83,458.6318,3227.83,3211.27,0.0,3211.27,1646.73,717.803,322.675,415.94,22.4662,59.5742,22.8487,3.23291
457.7,2972.91,458.332,2972.91,3057.68,0.0,3057.68,1059.51,1013.31,406.506,494.226,10.6063,50.45,20.1181,2.94212
457.4,3364.53,458.032,3364.53,3393.98,0.0,3393.98,715.977,1486.34,526.481,596.545,4.85231,43.2439,17.8457,2.68879
457.1,4050.78,457.732,4050.78,4223.4,0.0,4223.4,508.685,2217.62,705.549,733.544,2.1457,37.4603,15.9351,2.46677
456.8,5051.59,457.432,5051.59,5448.35,0.0,5448.35,377.172,3112.49,986.396,922.038,0.915086,32.7521,14.3139,2.2711
456.5,6313.62,457.1318,6313.62,6497.88,0.0,6497.88,289.597,3523,1451.87,1189.15,0.375668,28.8708,12.9267,2.09779
456.2,7514.6,456.832,7514.6,7061.84,0.0,7061.84,228.774,2953.15,2261.09,1579.38,0.148215,25.6351,11.7308,1.94355
455.9,8768.07,456.532,8768.07,8092.68,0.0,8092.68,184.998,2059.29,3645.87,2167.06,0.0561214,22.9104,10.6927,1.80569
455.6,9985.8,456.232,9985.8,10053.6,0.0,10053.6,152.529,1379.69,5410.62,3078.67,0.0203702,20.5954,9.78605,1.68198
455.3,11192.4,455.932,11192.4,11380.1,0.0,11380.1,127.827,946.787,5751.05,4525.25,0.00708028,18.6122,8.98954,1.57055
455.0,11942.8,455.6318,11942.8,11706.9,0.0,11706.9,108.621,675.759,4141.45,6754.42,0.00235456,16.9007,8.28612,1.46982
454.7,11808,455.332,11808,12385.3,0.0,12385.3,93.4067,501.091,2580.23,9186.13,0.000748585,15.4138,7.66187,1.37846
454.4,10723.1,455.032,10723.1,10354.7,0.0,10354.7,81.1576,384.072,1633.49,8233.43,0.00022738,14.1139,7.10539,1.29536
454.1,6096.11,454.732,6096.11,5529.38,0.0,5529.38,71.1549,302.67,1092.51,4042.25,6.59458e-05,12.971,6.60723,1.21955
453.8,1747.52,454.432,1747.52,2572.92,0.0,2572.92,62.884,244.118,771.016,1475.63,1.82524e-05,11.9611,6.15954,1.1502
453.5,664.496,454.1318,664.496,1339.72,0.0,1339.72,55.969,200.761,569.095,495.99,4.81897e-06,11.0642,5.75575,1.08659
453.2,485.638,453.832,485.638,829.367,0.0,829.367,50.1302,167.844,435.563,159.147,1.21313e-06,10.2642,5.39031,1.02811
452.9,332.893,453.532,332.893,594.499,0.0,594.499,45.1561,142.308,343.276,48.1782,2.91088e-07,9.54773,5.05852,0.974227
452.6,279.801,453.232,279.801,468.221,0.0,468.221,40.8847,122.125,277.096,13.5302,6.65523e-08,8.90348,4.75639,0.924468
452.3,206.596,452.932,206.596,388.407,0.0,388.407,37.19,105.912,228.148,3.47588,1.44942e-08,8.32214,4.48049,0.878423
452.0,131.695,452.6318,131.695,331.329,0.0,331.329,33.973,92.6995,190.989,0.808136,3.0061e-09,7.79578,4.22787,0.835732
451.7,112.364,452.332,112.364,287.377,0.0,287.377,31.1549,81.7964,162.148,0.168678,5.9359e-10,7.31771,3.99599,0.796077
451.4,48.738,452.032,48.738,252.159,0.0,252.159,28.6726,72.6976,139.333,0.0314141,1.11571e-10,6.88221,3.78264,0.759178
451.1,52.0656,451.732,52.0656,223.29,0.0,223.29,26.4749,65.0281,120.986,0.00519548,1.99582e-11,6.48437,3.58591,0.724784
450.8,90.4152,451.432,90.4152,199.262,0.0,199.262,24.52,58.5051,106.019,0.000760238,3.39624e-12,6.11999,3.40412,0.692674
450.5,25.0,451.1318,25.0,179.023,0.0,179.023,22.7735,52.912,93.6535,9.81328e-05,5.51151e-13,5.78543,3.23579,0.662651
450.2,99.0,450.832,99.0,161.802,0.0,161.802,21.2068,48.0809,83.3224,1.11476e-05,8.34391e-14,5.47752,3.07962,0.634537
450.0,80.0,450.6318,80.0,151.704,0.0,151.704,20.2503,45.2172,77.3526,2.43318e-06,2.4716e-14,5.28568,2.9817,0.616777

File: MX-HT-0.5-Ti2p_3.csv
#No of rows lightened (2D detector)1(if not using 2D detector, value is 1 and can be ignored!)
raw_x,raw_y,corrected x,data-bg,sum_components,bg,sum_fit,C_1,C_2,C_3,C_4,C_5,C_6,C_7,C_8
470.0,366.0,470.6318,366.0,151.782,0.0,151.782,13.2719,10.5579,10.9257,20.4576,78.3116,8.26145,8.33875,1.65688
469.7,415.0,470.332,415.0,160.881,0.0,160.881,14.0042,11.0428,11.3883,21.2757,83.442,8.85375,9.03342,1.84037
469.4,363.0,470.0318,363.0,170.863,0.0,170.863,14.7988,11.5619,11.881,22.1439,89.0908,9.51188,9.81828,2.05603
469.1,313.0,469.7318,313.0,181.851,0.0,181.851,15.6628,12.1183,12.4062,23.0664,95.3297,10.2459,10.7096,2.31184
468.8,140.0,469.432,140.0,193.992,0.0,193.992,16.6047,12.7159,12.9671,24.0476,102.243,11.068,11.7274,2.61839
468.5,212.0,469.1318,212.0,207.464,0.0,207.464,17.634,13.3587,13.5668,25.0928,109.932,11.9928,12.8966,2.98999
468.2,195.0,468.832,195.0,222.478,0.0,222.478,18.7618,14.0515,14.2091,26.2076,118.515,13.0378,14.2488,3.44635
467.9,87.0,468.5318,87.0,239.297,0.0,239.297,20.0013,14.7995,14.898,27.3984,128.136,14.225,15.8237,4.01523
467.6,104.403,468.2318,104.403,258.244,0.0,258.244,21.3675,15.6088,15.6383,28.6721,138.967,15.5811,17.673,4.73667
467.3,63.83,467.932,63.83,279.727,0.0,279.727,22.8783,16.4862,16.4351,30.0367,151.218,17.1395,19.8635,5.67013
467.0,104.399,467.6318,104.399,304.269,0.0,304.269,24.5548,17.4396,17.2943,31.501,165.146,18.9424,22.4837,6.90683
466.7,125.756,467.332,125.756,332.554,0.0,332.554,26.4222,18.478,18.2226,33.075,181.068,21.0431,25.6527,8.59234
466.4,250.21,467.0318,250.21,365.51,0.0,365.51,28.5103,19.6119,19.2276,34.7699,199.378,23.5105,29.5328,10.9699
466.1,271.986,466.7318,271.986,404.45,0.0,404.45,30.8555,20.8531,20.3181,36.5984,220.571,26.4344,34.3502,14.4695
465.8,275.147,466.432,275.147,451.336,0.0,451.336,33.5013,22.2157,21.5038,38.5749,245.276,29.9333,40.4271,19.9041
465.5,484.191,466.1318,484.191,509.373,0.0,509.373,36.5015,23.7161,22.7964,40.7158,274.298,34.1665,48.2332,28.9453
465.2,708.405,465.832,708.405,584.438,0.0,584.438,39.922,25.3734,24.2089,43.0399,308.682,39.3515,58.4723,45.3882
464.9,821.361,465.5318,821.361,688.98,0.0,688.98,43.8447,27.2102,25.7567,45.5685,349.797,45.7911,72.2315,78.7807
464.6,940.204,465.2318,940.204,851.123,0.0,851.123,48.3726,29.2534,27.4576,48.3265,399.457,53.916,91.2458,153.094
464.3,1169.69,464.932,1169.69,1090.56,0.0,1090.56,53.6362,31.5348,29.3324,51.3424,460.088,64.3535,118.382,281.887
464.0,1146.36,464.6318,1146.36,1218.84,0.0,1218.84,59.8029,34.093,31.4056,54.6493,534.952,78.0414,158.534,267.361
463.7,1267.13,464.332,1267.13,1281.77,0.0,1281.77,67.0905,36.9744,33.7062,58.286,628.439,96.4227,220.21,140.644
463.4,1563.99,464.0318,1563.99,1473.75,0.0,1473.75,75.7858,40.2356,36.2686,62.2975,746.414,121.787,317.741,73.2215
463.1,1742.71,463.7318,1742.71,1803.66,0.0,1803.66,86.2732,43.9461,39.134,66.7374,896.572,157.883,470.347,42.7691
462.8,2012.52,463.432,2012.52,2265.25,0.0,2265.25,99.0758,48.192,42.3521,71.6686,1088.68,211.001,676.716,27.5614
462.5,2542.39,463.1318,2542.39,2768.22,0.0,2768.22,114.921,53.081,45.9829,77.1663,1334.36,291.751,831.86,19.0981
462.2,2960.26,462.832,2960.26,3173.04,0.0,3173.04,134.84,58.7488,50.1001,83.3206,1645.5,416.912,769.649,13.9632
461.9,3516.65,462.532,3516.65,3581.05,0.0,3581.05,160.335,65.3689,54.7941,90.2401,2029.26,605.205,565.219,10.6327
461.6,3899.24,462.232,3899.24,4131.77,0.0,4131.77,193.653,73.1658,60.1777,98.0569,2474.33,841.169,382.859,8.35705
461.3,4347.5,461.932,4347.5,4674.39,0.0,4674.39,238.266,82.4331,66.3922,106.933,2920.35,992.01,261.274,6.73644
461.0,4964.33,461.6318,4964.33,4888.55,0.0,4888.55,299.736,93.5614,73.6172,117.067,3213.5,900.876,184.651,5.54291
460.7,4657.44,461.332,4657.44,4636.7,0.0,4636.7,387.335,107.078,82.0829,128.71,3122.28,669.008,135.563,4.63925
460.4,4360.87,461.032,4360.87,3993.01,0.0,3993.01,517.226,123.711,92.089,142.174,2548.4,462.489,102.982,3.93902
460.1,3452.05,460.732,3452.05,3263.38,0.0,3263.38,718.79,144.478,104.031,157.86,1733,321.294,80.5352,3.38563
459.8,2863.09,460.432,2863.09,2829.16,0.0,2829.16,1046.86,170.846,118.437,176.281,1019.14,230.13,64.5318,2.94084
459.5,3015.08,460.1318,3015.08,2907.24,0.0,2907.24,1598.87,204.976,136.032,198.111,543.275,170.618,52.7752,2.57806
459.2,3617.92,459.832,3617.92,3568.62,0.0,3568.62,2488.68,250.145,157.818,224.24,270.993,130.557,43.9114,2.27834
458.9,4435.13,459.532,4435.13,4539.15,0.0,4539.15,3516.39,311.488,185.224,255.871,128.413,102.662,37.0772,2.0279
458.6,4712.62,459.232,4712.62,4747.84,0.0,4747.84,3661.3,397.334,220.336,294.651,58.0943,82.6132,31.7047,1.81653
458.3,3862.49,458.932,3862.49,3969.8,0.0,3969.8,2716.99,521.701,266.282,342.891,25.095,67.7908,27.4091,1.6365
458.0,3227.83,458.6318,3227.83,3290.05,0.0,3290.05,1756.96,708.97,327.918,403.906,10.3314,56.5589,23.9234,1.48193
457.7,2972.91,458.332,2972.91,3113.07,0.0,3113.07,1140.96,1002.16,413.068,482.572,4.04364,47.8633,21.0576,1.34824
457.4,3364.53,458.032,3364.53,3431.9,0.0,3431.9,775.237,1473.09,534.9,586.263,1.50082,41.0042,18.6741,1.23183
457.1,4050.78,457.732,4050.78,4254.57,0.0,4254.57,552.613,2205.03,716.671,726.424,0.526999,35.5046,16.671,1.12986
456.8,5051.59,457.432,5051.59,5487.93,0.0,5487.93,410.606,3107.27,1001.6,921.243,0.17471,31.0311,14.972,1.04003
456.5,6313.62,457.1318,6313.62,6554.76,0.0,6554.76,315.712,3523.59,1473.39,1200.19,0.054584,27.3457,13.5188,0.960494
456.2,7514.6,456.832,7514.6,7137.34,0.0,7137.34,249.648,2946.08,2292.29,1611.87,0.0160463,24.2749,12.2664,0.889736
455.9,8768.07,456.532,8768.07,8209.93,0.0,8209.93,202.019,2046.15,3689.84,2238.22,0.00443258,21.6904,11.1796,0.826511
455.6,9985.8,456.232,9985.8,10247.7,0.0,10247.7,166.65,1366.74,5463.93,3219.86,0.00114923,19.4952,10.2305,0.769789
455.3,11192.4,455.932,11192.4,11691.7,0.0,11691.7,139.717,936.09,5805.27,4782.88,0.000279376,17.6153,9.39693,0.718707
455.0,11942.8,455.6318,11942.8,12071.4,0.0,12071.4,118.761,667.319,4188.83,7071.16,6.36237e-05,15.9934,8.66091,0.672543
454.7,11808,455.332,11808,11932.9,0.0,11932.9,102.151,494.449,2614.81,8698.32,1.35633e-05,14.5846,8.00784,0.630685
454.4,10723.1,455.032,10723.1,8352.24,0.0,8352.24,88.773,378.784,1657.33,6205.98,2.70482e-06,13.3534,7.42574,0.592614
454.1,6096.11,454.732,6096.11,4138.75,0.0,4138.75,77.8442,298.395,1109.19,2633.58,5.04291e-07,12.271,6.90472,0.557887
453.8,1747.52,454.432,1747.52,2040.4,0.0,2040.4,68.805,240.607,783.107,929.599,8.78555e-08,11.3147,6.43653,0.526124
453.5,664.496,454.1318,664.496,1165.32,0.0,1165.32,61.2457,197.836,578.165,311.093,1.42955e-08,10.4656,6.01429,0.496996
453.2,485.638,453.832,485.638,778.177,0.0,778.177,54.8616,165.374,442.578,99.5523,2.17169e-09,9.70833,5.63219,0.470222
452.9,332.893,453.532,332.893,583.212,0.0,583.212,49.422,140.198,348.845,29.9852,3.07896e-10,9.03013,5.28531,0.445553
452.6,279.801,453.232,279.801,468.846,0.0,468.846,44.7502,120.304,281.615,8.36468,4.07241e-11,8.4204,4.96945,0.422774
452.3,206.596,452.932,206.596,392.002,0.0,392.002,40.7086,104.325,231.882,2.13372,5.02374e-12,7.87025,4.68104,0.401698
452.0,131.695,452.6318,131.695,335.283,0.0,335.283,37.1891,91.3052,194.124,0.492931,5.7728e-13,7.37219,4.41698,0.38216
451.7,112.364,452.332,112.364,291.044,0.0,291.044,34.1058,80.5622,164.815,0.102385,5.99247e-14,6.91984,4.17462,0.364012
451.4,48.738,452.032,48.738,255.442,0.0,255.442,31.3896,71.5978,141.629,0.019014,4.67566e-15,6.5078,3.95164,0.347126
451.1,52.0656,451.732,52.0656,226.222,0.0,226.222,28.9847,64.0421,122.983,0.00314358,0.0,6.13142,3.74603,0.331389
450.8,90.4152,451.432,90.4152,201.892,0.0,201.892,26.8453,57.6164,107.771,0.000461119,0.0,5.78672,3.55604,0.316697
450.5,25.0,451.1318,25.0,181.397,0.0,181.397,24.9339,52.107,95.2024,5.98488e-05,0.0,5.47024,3.38013,0.302961
450.2,99.0,450.832,99.0,163.955,0.0,163.955,23.2191,47.3483,84.7015,6.85796e-06,0.0,5.17898,3.21694,0.290099
450.0,80.0,450.6318,80.0,153.728,0.0,153.728,22.1722,44.5277,78.6336,1.50835e-06,0.0,4.99752,3.11462,0.281974

File: MX-HT-0.5-Ti2p_4.csv
#No of rows lightened (2D detector)1(if not using 2D detector, value is 1 and can be ignored!)
raw_x,raw_y,corrected x,data-bg,sum_components,bg,sum_fit,C_1,C_2,C_3,C_4,C_5,C_6,C_7,C_8
470.0,366.0,470.6318,366.0,142.991,0.0,142.991,11.6575,9.59053,12.2061,27.9801,55.954,12.3294,9.18348,4.0902
469.7,415.0,470.332,415.0,151.467,0.0,151.467,12.3009,10.031,12.7229,29.0763,59.636,13.2122,9.9473,4.54094
469.4,363.0,470.0318,363.0,160.778,0.0,160.778,12.999,10.5025,13.2731,30.2381,63.6924,14.1929,10.8101,5.07017
469.1,313.0,469.7318,313.0,171.045,0.0,171.045,13.7582,11.008,13.8598,31.4708,68.1753,15.2865,11.7895,5.69713
468.8,140.0,469.432,140.0,182.416,0.0,182.416,14.5857,11.5509,14.4862,32.7805,73.1466,16.511,12.9076,6.44732
468.5,212.0,469.1318,212.0,195.069,0.0,195.069,15.4902,12.1349,15.1561,34.1736,78.6795,17.8881,14.1916,7.35507
468.2,195.0,468.832,195.0,209.225,0.0,209.225,16.4813,12.7642,15.8734,35.6573,84.8615,19.4439,15.6758,8.46743
467.9,87.0,468.5318,87.0,225.159,0.0,225.159,17.5705,13.4438,16.6429,37.2397,91.7974,21.2106,17.4036,9.8503
467.6,104.403,468.2318,104.403,243.221,0.0,243.221,18.7711,14.179,17.4697,38.9297,99.6145,23.228,19.4311,11.5981
467.3,63.83,467.932,63.83,263.865,0.0,263.865,20.0989,14.9761,18.3596,40.7373,108.467,25.5453,21.8311,13.8496
467.0,104.399,467.6318,104.399,287.693,0.0,287.693,21.5725,15.8422,19.3191,42.6737,118.546,28.2248,24.6995,16.8156
466.7,125.756,467.332,125.756,315.529,0.0,315.529,23.2138,16.7856,20.3558,44.7513,130.086,31.3451,28.1649,20.8272
466.4,250.21,467.0318,250.21,348.544,0.0,348.544,25.0494,17.8157,21.4782,46.9842,143.38,35.0078,32.4028,26.4264
466.1,271.986,466.7318,271.986,388.481,0.0,388.481,27.111,18.9434,22.6959,49.3883,158.799,39.3444,37.6564,34.5432
465.8,275.147,466.432,275.147,438.096,0.0,438.096,29.4373,20.1814,24.02,51.9815,176.813,44.5291,44.2707,46.8627
465.5,484.191,466.1318,484.191,502.059,0.0,502.059,32.0753,21.5445,25.4632,54.7842,198.028,50.7946,52.7464,66.6227
465.2,708.405,465.832,708.405,588.884,0.0,588.884,35.0832,23.0503,27.0404,57.8194,223.225,58.4582,63.8286,100.379
464.9,821.361,465.5318,821.361,714.576,0.0,714.576,38.5333,24.7191,28.7686,61.1137,253.427,67.9597,78.658,161.396
464.6,940.204,465.2318,940.204,902.865,0.0,902.865,42.5163,26.5755,30.6675,64.6973,289.981,79.9222,99.034,269.471
464.3,1169.69,464.932,1169.69,1133.78,0.0,1133.78,47.1473,28.6484,32.7605,68.605,334.668,95.2475,127.881,398.826
464.0,1146.36,464.6318,1146.36,1253.54,0.0,1253.54,52.574,30.9729,35.0749,72.877,389.862,115.274,170.067,386.833
463.7,1267.13,464.332,1267.13,1295.85,0.0,1295.85,58.9887,33.5911,37.643,77.5601,458.745,142.041,233.741,253.538
463.4,1563.99,464.0318,1563.99,1434.37,0.0,1434.37,66.6449,36.5545,40.5031,82.7086,545.608,178.741,331.737,151.869
463.1,1742.71,463.7318,1742.71,1708.66,0.0,1708.66,75.8821,39.9263,43.7011,88.386,656.292,230.502,478.79,95.1802
462.8,2012.52,463.432,2012.52,2107.4,0.0,2107.4,87.1637,43.7848,47.2924,94.6673,798.808,305.692,666.337,63.6557
462.5,2542.39,463.1318,2542.39,2548.86,0.0,2548.86,101.133,48.2279,51.3439,101.641,984.191,417.816,799.447,45.0572
462.2,2960.26,462.832,2960.26,2931.67,0.0,2931.67,118.707,53.3791,55.9375,109.412,1227.41,586.595,746.846,33.378
461.9,3516.65,462.532,3516.65,3349.03,0.0,3349.03,141.219,59.3962,61.174,118.108,1547.29,829.648,566.559,25.6364
461.6,3899.24,462.232,3899.24,3926.08,0.0,3926.08,170.672,66.4834,67.1789,127.879,1961.04,1117.16,395.398,20.2694
461.3,4347.5,461.932,4347.5,4540.78,0.0,4540.78,210.166,74.9079,74.1093,138.91,2459.15,1291.73,275.396,16.4081
461.0,4964.33,461.6318,4964.33,4913.5,0.0,4913.5,264.692,85.0252,82.1648,151.426,2932.37,1187.08,197.194,13.5434
460.7,4657.44,461.332,4657.44,4847.52,0.0,4847.52,342.614,97.3159,91.6015,165.707,3083.72,909.199,146.004,11.3624
460.4,4360.87,461.032,4360.87,4257.42,0.0,4257.42,458.628,112.441,102.752,182.097,2633.7,646.595,111.544,9.66528
460.1,3452.05,460.732,3452.05,3451.66,0.0,3451.66,639.789,131.331,116.055,201.032,1809.37,458.195,87.5731,8.31958
459.8,2863.09,460.432,2863.09,2933.11,0.0,2933.11,937.622,155.321,132.098,223.063,1074.92,332.489,70.3682,7.2351
459.5,3015.08,460.1318,3015.08,2942.25,0.0,2942.25,1447.26,186.383,151.68,248.899,595.375,248.634,57.6673,6.34868
459.2,3617.92,459.832,3617.92,3539.88,0.0,3539.88,2291.96,227.508,175.913,279.464,319.998,191.367,48.0567,5.61507
458.9,4435.13,459.532,4435.13,4476.71,0.0,4476.71,3304.99,283.39,206.375,315.975,169.262,151.095,40.6263,5.00118
458.6,4712.62,459.232,4712.62,4667.77,0.0,4667.77,3451.19,361.655,245.364,360.065,88.2998,121.945,34.7724,4.4824
458.3,3862.49,458.932,3862.49,3878.66,0.0,3878.66,2513.47,475.162,296.319,413.962,45.3298,100.284,30.084,4.0401
458.0,3227.83,458.6318,3227.83,3223.46,0.0,3223.46,1595.22,646.358,364.561,480.762,22.8209,83.8073,26.2743,3.66001
457.7,2972.91,458.332,2972.91,3071.01,0.0,3071.01,1023.74,915.058,458.626,564.87,11.2276,71.0135,23.1386,3.33101
457.4,3364.53,458.032,3364.53,3394.48,0.0,3394.48,690.77,1348.37,592.787,672.699,5.3811,60.8985,20.5282,3.04436
457.1,4050.78,457.732,4050.78,4198.75,0.0,4198.75,490.333,2026.13,792.022,813.857,2.50556,52.7735,18.3327,2.7931
456.8,5051.59,457.432,5051.59,5403.76,0.0,5403.76,363.357,2868.79,1102.1,1003.18,1.13077,46.1547,16.4693,2.57165
456.5,6313.62,457.1318,6313.62,6471.77,0.0,6471.77,278.884,3260.35,1609.68,1264.42,0.493668,40.6953,14.8746,2.37548
456.2,7514.6,456.832,7514.6,7100.71,0.0,7100.71,220.253,2717.66,2473.73,1637.01,0.208141,36.1419,13.4996,2.2009
455.9,8768.07,456.532,8768.07,8193.05,0.0,8193.05,178.073,1878.57,3900.55,2189.13,0.0846314,32.3063,12.3059,2.04485
455.6,9985.8,456.232,9985.8,10111.2,0.0,10111.2,146.799,1250.33,5629.92,3041.95,0.0331462,29.0461,11.2631,1.9048
455.3,11192.4,455.932,11192.4,11370.5,0.0,11370.5,123.012,854.433,5952.67,4401.94,0.0124915,26.2526,10.3469,1.77864
455.0,11942.8,455.6318,11942.8,11628.2,0.0,11628.2,104.521,608.252,4395.96,6484.47,0.00452569,23.8412,9.53774,1.6646
454.7,11808,455.332,11808,12133,0.0,12133,89.8747,450.278,2808.26,8752.46,0.0015751,21.7457,8.81957,1.56117
454.4,10723.1,455.032,10723.1,10688.7,0.0,10688.7,78.0845,344.737,1805.63,8430.68,0.000526254,19.9135,8.17931,1.46708
454.1,6096.11,454.732,6096.11,5828.76,0.0,5828.76,68.4576,271.46,1218.51,4243.05,0.000168688,18.3024,7.60611,1.38124
453.8,1747.52,454.432,1747.52,2186.81,0.0,2186.81,60.4981,218.823,864.565,1017.65,5.18503e-05,16.8784,7.09096,1.30271
453.5,664.496,454.1318,664.496,1027.23,0.0,1027.23,53.8439,179.884,640.309,129.719,1.52755e-05,15.6138,6.62628,1.23069
453.2,485.638,453.832,485.638,721.05,0.0,721.05,48.2255,150.342,491.168,9.45849,4.31158e-06,14.4856,6.20572,1.16447
452.9,332.893,453.532,332.893,579.381,0.0,579.381,43.4395,127.438,387.702,0.398723,1.16551e-06,13.475,5.82388,1.10345
452.6,279.801,453.232,279.801,481.079,0.0,481.079,39.3297,109.343,313.307,0.00960857,3.01645e-07,12.5663,5.47614,1.0471
452.3,206.596,452.932,206.596,406.662,0.0,406.662,35.775,94.8119,258.175,0.000130499,7.47213e-08,11.7462,5.15858,0.994957
452.0,131.695,452.6318,131.695,348.733,0.0,348.733,32.6799,82.9739,216.261,9.86741e-07,1.77111e-08,11.0037,4.86781,0.946611
451.7,112.364,452.332,112.364,302.701,0.0,302.701,29.9687,73.207,183.693,4.11395e-09,4.01605e-09,10.3292,4.60091,0.901702
451.4,48.738,452.032,48.738,265.477,0.0,265.477,27.5806,65.058,157.908,9.39433e-12,8.70976e-10,9.71476,4.35533,0.859913
451.1,52.0656,451.732,52.0656,234.918,0.0,234.918,25.4664,58.1902,137.158,0.0,1.80627e-10,9.15343,4.12887,0.820962
450.8,90.4152,451.432,90.4152,209.5,0.0,209.5,23.5857,52.3499,120.221,0.0,3.58143e-11,8.63927,3.9196,0.784596
450.5,25.0,451.1318,25.0,188.113,0.0,188.113,21.9056,47.3427,106.221,0.0,6.78761e-12,8.16716,3.72582,0.750593
450.2,99.0,450.832,99.0,169.934,0.0,169.934,20.3985,43.0181,94.52,0.0,1.22968e-12,7.73264,3.54604,0.718753
450.0,80.0,450.6318,80.0,159.284,0.0,159.284,19.4783,40.4548,87.7569,0.0,3.82835e-13,7.46192,3.43331,0.698638