Folder: python_code_MXene_VRFB/XPS/LG4X-result (part 4)

File: MX-HT-0.5-Ti2p_5.csv
#No of rows lightened (2D detector)1(if not using 2D detector, value is 1 and can be ignored!)
raw_x,raw_y,corrected x,data-bg,sum_components,bg,sum_fit,bg_shirley_,C_1,C_2,C_3,C_4,C_5,C_6,C_7,C_8
470.0,366.0,470.6318,366,142.934,0.000352358,142.934,0.000352358,11.6544,9.59029,12.2055,27.9813,55.8458,12.365,9.19662,4.09494
469.7,415.0,470.332,415,151.407,0.000351609,151.407,0.000351609,12.2976,10.0308,12.7223,29.0774,59.5207,13.2503,9.96152,4.5462
469.4,363.0,470.0318,363,160.714,0.000350891,160.715,0.000350891,12.9956,10.5023,13.2725,30.2393,63.5693,14.2338,10.8255,5.07604
469.1,313.0,469.7318,313,170.978,0.000350252,170.978,0.000350252,13.7545,11.0078,13.8591,31.4721,68.0437,15.3306,11.8064,5.70372
468.8,140.0,469.432,140,182.345,0.000349774,182.345,0.000349774,14.5819,11.5506,14.4855,32.7818,73.0054,16.5587,12.926,6.45477
468.5,212.0,469.1318,212,194.994,0.000349403,194.994,0.000349403,15.4861,12.1346,15.1554,34.1749,78.5278,17.9397,14.2119,7.36356
468.2,195.0,468.832,195,209.145,0.000349023,209.146,0.000349023,16.4769,12.7639,15.8727,35.6587,84.6979,19.5,15.6981,8.4772
467.9,87.0,468.5318,86.9997,225.075,0.000348721,225.075,0.000348721,17.5658,13.4434,16.6421,37.2412,91.6206,21.2718,17.4284,9.86164
467.6,104.403,468.2318,104.403,243.133,0.000348588,243.133,0.000348588,18.7662,14.1786,17.4689,38.9312,99.4228,23.2949,19.4588,11.6114
467.3,63.83,467.932,63.8296,263.772,0.000348454,263.773,0.000348454,20.0936,14.9757,18.3587,40.7389,108.259,25.619,21.8621,13.8655
467.0,104.399,467.6318,104.399,287.596,0.000348334,287.596,0.000348334,21.5668,15.8418,19.3182,42.6753,118.318,28.3061,24.7345,16.8348
466.7,125.756,467.332,125.756,315.428,0.000348142,315.428,0.000348142,23.2077,16.7852,20.3549,44.753,129.836,31.4354,28.2048,20.8509
466.4,250.21,467.0318,250.21,348.44,0.000347806,348.44,0.000347806,25.0428,17.8152,21.4772,46.986,143.105,35.1085,32.4486,26.4562
466.1,271.986,466.7318,271.986,388.376,0.000347409,388.376,0.000347409,27.1039,18.9429,22.6948,49.3902,158.495,39.4576,37.7094,34.5818
465.8,275.147,466.432,275.147,437.993,0.000346889,437.993,0.000346889,29.4295,20.1809,24.0188,51.9836,176.476,44.6571,44.3328,46.9143
465.5,484.191,466.1318,484.191,501.964,0.000346107,501.965,0.000346107,32.0669,21.544,25.462,54.7863,197.65,50.9405,52.8201,66.6941
465.2,708.405,465.832,708.405,588.81,0.000345147,588.81,0.000345147,35.074,23.0497,27.0391,57.8217,222.8,58.6259,63.9172,100.482
464.9,821.361,465.5318,821.36,714.54,0.000343581,714.541,0.000343581,38.5232,24.7185,28.7672,61.1161,252.947,68.1545,78.7663,161.548
464.6,940.204,465.2318,940.204,902.881,0.000341941,902.882,0.000341941,42.5051,26.5748,30.6661,64.6998,289.432,80.1509,99.1688,269.684
464.3,1169.69,464.932,1169.69,1133.82,0.000339945,1133.82,0.000339945,47.1349,28.6477,32.759,68.6077,334.035,95.5195,128.052,399.069
464.0,1146.36,464.6318,1146.36,1253.58,0.000337681,1253.58,0.000337681,52.5602,30.9721,35.0733,72.8799,389.126,115.602,170.289,387.075
463.7,1267.13,464.332,1267.13,1295.87,0.000335202,1295.87,0.000335202,58.9732,33.5902,37.6412,77.5632,457.878,142.444,234.035,253.744
463.4,1563.99,464.0318,1563.99,1434.36,0.000332604,1434.36,0.000332604,66.6274,36.5536,40.5012,82.7118,544.578,179.246,332.13,152.014
463.1,1742.71,463.7318,1742.71,1708.66,0.00032964,1708.66,0.00032964,75.8623,39.9253,43.6991,88.3895,655.053,231.148,479.303,95.2784
462.8,2012.52,463.432,2012.52,2107.41,0.000325939,2107.41,0.000325939,87.1409,43.7837,47.2902,94.671,797.305,306.541,666.955,63.7242
462.5,2542.39,463.1318,2542.39,2548.85,0.000321639,2548.85,0.000321639,101.107,48.2267,51.3415,101.645,982.358,418.959,800.107,45.1069
462.2,2960.26,462.832,2960.26,2931.65,0.000316542,2931.65,0.000316542,118.676,53.3777,55.9348,109.417,1225.18,588.163,747.493,33.4154
461.9,3516.65,462.532,3516.65,3349.05,0.000310431,3349.05,0.000310431,141.183,59.3947,61.1711,118.112,1544.6,831.79,567.128,25.6654
461.6,3899.24,462.232,3899.24,3926.13,0.000303147,3926.13,0.000303147,170.628,66.4817,67.1757,127.884,1957.91,1119.92,395.847,20.2924
461.3,4347.5,461.932,4347.5,4540.81,0.000295066,4540.81,0.000295066,210.113,74.906,74.1058,138.915,2455.76,1294.85,275.734,16.4269
461.0,4964.33,461.6318,4964.33,4913.44,0.000285976,4913.44,0.000285976,264.625,85.0231,82.161,151.432,2929.2,1189.99,197.448,13.5589
460.7,4657.44,461.332,4657.44,4847.52,0.000276393,4847.52,0.000276393,342.528,97.3135,91.5972,165.713,3081.28,911.519,146.198,11.3755
460.4,4360.87,461.032,4360.87,4257.45,0.000267208,4257.45,0.000267208,458.515,112.439,102.747,182.104,2631.96,648.309,111.695,9.67641
460.1,3452.05,460.732,3452.05,3451.62,0.000259283,3451.62,0.000259283,639.637,131.328,116.05,201.04,1808.11,459.441,87.6931,8.32918
459.8,2863.09,460.432,2863.09,2933.12,0.000252996,2933.12,0.000252996,937.41,155.318,132.092,223.071,1074.11,333.409,70.4656,7.24346
459.5,3015.08,460.1318,3015.08,2942.31,0.00024738,2942.31,0.00024738,1446.97,186.378,151.673,248.909,594.949,249.33,57.7476,6.35602
459.2,3617.92,459.832,3617.92,3539.93,0.000241246,3539.93,0.000241246,2291.57,227.503,175.905,279.475,319.818,191.907,48.1241,5.62156
458.9,4435.13,459.532,4435.13,4476.73,0.000233543,4476.73,0.000233543,3304.57,283.384,206.366,315.987,169.209,151.523,40.6835,5.00697
458.6,4712.62,459.232,4712.62,4667.75,0.00022471,4667.75,0.00022471,3450.77,361.646,245.352,360.079,88.3026,122.292,34.8215,4.48759
458.3,3862.49,458.932,3862.49,3878.6,0.0002159,3878.6,0.0002159,2513.07,475.151,296.305,413.978,45.3503,100.57,30.1266,4.04479
458.0,3227.83,458.6318,3227.83,3223.44,0.000208558,3223.44,0.000208558,1594.9,646.343,364.544,480.781,22.8425,84.047,26.3115,3.66426
457.7,2972.91,458.332,2972.91,3071.02,0.000202377,3071.02,0.000202377,1023.52,915.037,458.605,564.891,11.2445,71.2169,23.1715,3.33488
457.4,3364.53,458.032,3364.53,3394.51,0.000196278,3394.51,0.000196278,690.607,1348.34,592.76,672.725,5.39263,61.0732,20.5574,3.04789
457.1,4050.78,457.732,4050.78,4198.77,0.000189206,4198.77,0.000189206,490.214,2026.09,791.987,813.887,2.51267,52.925,18.3588,2.79634
456.8,5051.59,457.432,5051.59,5403.77,0.000180582,5403.77,0.000180582,363.266,2868.74,1102.06,1003.22,1.13485,46.2873,16.4928,2.57464
456.5,6313.62,457.1318,6313.62,6471.77,0.000169911,6471.77,0.000169911,278.814,3260.29,1609.62,1264.46,0.495855,40.8123,14.8958,2.37824
456.2,7514.6,456.832,7514.6,7100.7,0.000156685,7100.7,0.000156685,220.196,2717.61,2473.64,1637.07,0.209249,36.246,13.5189,2.20346
455.9,8768.07,456.532,8768.07,8193.03,0.000141152,8193.03,0.000141152,178.027,1878.53,3900.42,2189.2,0.0851631,32.3993,12.3235,2.04723
455.6,9985.8,456.232,9985.8,10111.2,0.000123132,10111.2,0.000123132,146.761,1250.3,5629.76,3042.04,0.0333883,29.1298,11.2792,1.90701
455.3,11192.4,455.932,11192.4,11370.5,0.000102922,11370.5,0.000102922,122.98,854.414,5952.52,4402.06,0.0125963,26.3282,10.3617,1.78071
455.0,11942.8,455.6318,11942.8,11628.3,8.03782e-05,11628.3,8.03782e-05,104.493,608.238,4395.82,6484.6,0.0045689,23.9099,9.55138,1.66654
454.7,11808,455.332,11808,12133,5.70508e-05,12133,5.70508e-05,89.8512,450.267,2808.15,8752.55,0.00159206,21.8084,8.83219,1.56299
454.4,10723.1,455.032,10723.1,10688.7,3.44419e-05,10688.7,3.44419e-05,78.0641,344.729,1805.55,8430.68,0.000532596,19.9709,8.19101,1.46879
454.1,6096.11,454.732,6096.11,5828.75,1.55878e-05,5828.75,1.55878e-05,68.4397,271.454,1218.45,4243.05,0.000170949,18.3552,7.617,1.38285
453.8,1747.52,454.432,1747.52,2186.82,7.1962e-06,2186.82,7.1962e-06,60.4823,218.817,864.526,1017.66,5.26188e-05,16.9271,7.10111,1.30423
453.5,664.496,454.1318,664.496,1027.24,4.64515e-06,1027.24,4.64515e-06,53.8298,179.879,640.28,129.722,1.55245e-05,15.6588,6.63578,1.23212
453.2,485.638,453.832,485.638,721.064,3.47508e-06,721.064,3.47508e-06,48.2129,150.338,491.146,9.45873,4.38857e-06,14.5274,6.21461,1.16582
452.9,332.893,453.532,332.893,579.397,2.7268e-06,579.397,2.7268e-06,43.4281,127.435,387.684,0.398734,1.18821e-06,13.5139,5.83222,1.10473
452.6,279.801,453.232,279.801,481.097,2.12515e-06,481.097,2.12515e-06,39.3194,109.34,313.293,0.00960886,3.08028e-07,12.6026,5.48399,1.04832
452.3,206.596,452.932,206.596,406.681,1.69562e-06,406.681,1.69562e-06,35.7656,94.8095,258.163,0.000130503,7.64335e-08,11.7802,5.16598,0.996115
452.0,131.695,452.6318,131.695,348.752,1.32439e-06,348.752,1.32439e-06,32.6713,82.9718,216.251,9.86771e-07,1.81493e-08,11.0355,4.87479,0.947712
451.7,112.364,452.332,112.364,302.72,1.09234e-06,302.72,1.09234e-06,29.9608,73.2052,183.685,4.11405e-09,4.12298e-09,10.3591,4.60751,0.902752
451.4,48.738,452.032,48.738,265.496,7.86114e-07,265.496,7.86114e-07,27.5734,65.0564,157.901,9.39468e-12,8.95875e-10,9.74282,4.36158,0.860914
451.1,52.0656,451.732,52.0656,234.937,5.90303e-07,234.937,5.90303e-07,25.4597,58.1888,137.152,0.0,1.86157e-10,9.17986,4.13479,0.821917
450.8,90.4152,451.432,90.4152,209.518,4.04073e-07,209.518,4.04073e-07,23.5795,52.3486,120.215,0.0,3.69858e-11,8.66422,3.92522,0.78551
450.5,25.0,451.1318,25,188.131,3.05142e-07,188.131,3.05142e-07,21.8998,47.3415,106.216,0.0,7.02364e-12,8.19075,3.73116,0.751467
450.2,99.0,450.832,99,169.951,1.7708e-07,169.951,1.7708e-07,20.3931,43.017,94.5156,0.0,1.2743e-12,7.75498,3.55113,0.719589
450.0,80.0,450.6318,80,159.301,5.22851e-08,159.301,5.22851e-08,19.4732,40.4538,87.7527,0.0,3.9969e-13,7.48347,3.43824,0.699451

File: MX-HT-0.5-Ti2p_6.csv
#No of rows lightened (2D detector)1(if not using 2D detector, value is 1 and can be ignored!)
raw_x,raw_y,corrected x,data-bg,sum_components,bg,sum_fit,TiO2,Ti 3+,Ti 2+,Ti-C,Ti-C (2p1/2),Ti 2+(2p1/2),Ti 3+(2p1/2),Ti 4+ (2p1/2)
467.8,6950.0,468.432,117.0,-6631.53,6833.0,201.469,17.3246,14.5874,16.4984,29.2359,45.5839,36.9838,24.611,16.6443
467.5,6910.0,468.1318,78.1081,-6612.79,6831.89,219.106,18.5221,15.3924,17.325,30.5844,49.5377,40.56,27.5299,19.6547
467.2,6890.0,467.832,59.3055,-6591.1,6830.69,239.597,19.848,16.2659,18.2151,32.0284,54.0207,44.6774,30.9947,23.5465
466.9,6918.0,467.5318,89.1468,-6565.14,6828.85,263.708,21.3211,17.2157,19.1756,33.5769,59.1283,49.45,35.1487,28.6921
466.6,7043.0,467.2318,217.08,-6533.39,6825.92,292.532,22.9642,18.251,20.2141,35.2405,64.9769,55.0234,40.1848,35.677
466.3,7020.0,466.932,198.945,-6493.38,6821.06,327.676,24.8043,19.3825,21.3391,37.0307,71.7095,61.5854,46.3671,45.4574
466.0,7070.0,466.6318,254.018,-6444.35,6815.98,371.63,26.8742,20.6223,22.5606,38.9608,79.5031,69.3815,54.0643,59.6628
465.7,7168.0,466.332,358.594,-6380.96,6809.41,428.448,29.2135,21.9847,23.8899,41.0457,88.5785,78.7377,63.8021,81.1953
465.4,7198.0,466.0318,399.604,-6293.32,6798.4,505.076,31.8712,23.4864,25.3401,43.3023,99.214,90.0931,76.3479,115.42
465.1,7620.0,465.7318,836.371,-6169.96,6783.63,613.666,34.9075,25.1469,26.9263,45.7502,111.764,104.05,92.8512,172.27
464.8,7639.0,465.432,874.912,-5990.92,6764.09,773.164,38.3974,26.9895,28.666,48.4113,126.687,121.451,115.083,267.479
464.5,7793.0,465.1318,1049.89,-5750.17,6743.11,992.94,42.4358,29.0417,30.5796,51.3114,144.584,143.499,145.849,405.639
464.2,7881.0,464.832,1163.7,-5519.87,6717.3,1197.43,47.1432,31.3364,32.691,54.4797,166.263,171.954,189.721,503.839
463.9,8036.0,464.5318,1345.99,-5418.57,6690.01,1271.45,52.6752,33.9133,35.0285,57.9504,192.832,209.459,254.266,435.321
463.6,8006.0,464.2318,1346.22,-5332.67,6659.78,1327.11,59.235,36.8203,37.6254,61.7632,225.85,260.092,351.816,293.908
463.3,8033.0,463.932,1406.47,-5126.12,6626.53,1500.41,67.0921,40.1162,40.5215,65.9646,267.579,330.328,500.15,188.658
463.0,8481.0,463.6318,1892.75,-4763.83,6588.25,1824.41,76.6095,43.8733,43.7645,70.609,321.404,430.722,712.297,125.131
462.7,8738.0,463.332,2196.77,-4276.11,6541.23,2265.11,88.2855,48.1812,47.4118,75.7608,392.574,578.715,947.043,87.1419
462.4,9089.0,463.032,2604.27,-3793.61,6484.73,2691.12,102.818,53.1526,51.5335,81.4968,489.519,802.475,1046.65,63.4827
462.1,9534.0,462.732,3114.72,-3372.44,6419.28,3046.83,121.208,58.9301,56.2153,87.9085,626.208,1141.27,907.071,48.0261
461.8,10130.0,462.432,3789.86,-2823.57,6340.14,3516.57,144.928,65.6968,61.563,95.1061,826.159,1617.63,668.016,37.4749
461.5,10502.0,462.1318,4252.72,-2085.32,6249.28,4163.96,176.211,73.69,67.7086,103.223,1127.22,2118.4,467.51,29.994
461.2,10749.0,461.832,4600.06,-1446.86,6148.94,4702.09,218.56,83.2225,74.8185,112.423,1574.28,2284.07,330.194,24.5168
460.9,10891.0,461.532,4855.26,-1125.75,6035.74,4909.99,277.69,94.7122,83.1045,122.906,2131.15,1939.98,240.064,20.3959
460.6,10743.0,461.232,4818.03,-1189.38,5924.97,4735.59,363.342,108.727,92.8395,134.922,2419.96,1418.4,180.178,17.2225
460.3,9886.0,460.932,4064.41,-1822.69,5821.59,3998.9,492.938,126.054,104.38,148.785,1979.2,993.576,139.235,14.7296
460.0,8916.0,460.6318,3177.66,-2538.02,5738.34,3200.32,699.093,147.808,118.199,164.891,1242.92,704.321,110.355,12.7372
459.7,8551.0,460.332,2881.28,-2803.33,5669.72,2866.39,1044.34,175.602,134.932,183.751,713.143,514.128,89.3759,11.1206
459.4,8681.0,460.032,3079.62,-2507.7,5601.38,3093.69,1639.34,211.838,155.453,206.025,410.242,387.271,73.7287,9.79157
459.1,9448.0,459.732,3927.06,-1655.42,5520.94,3865.52,2578.59,260.202,180.984,232.587,242.492,300.192,61.7845,8.68605
458.8,9910.0,459.432,4488.59,-733.998,5421.41,4687.41,3436.91,326.535,213.277,264.605,147.302,238.543,52.4801,7.75684
458.5,9900.0,459.1318,4585.53,-868.009,5314.47,4446.46,3130.34,420.439,254.906,303.671,91.4165,193.613,45.1021,6.96851
458.2,9053.0,458.832,3833.21,-1623.82,5219.79,3595.98,2112.85,558.291,309.777,351.998,57.5947,160.009,39.1597,6.29407
457.9,8274.0,458.532,3133.4,-2035.1,5140.6,3105.51,1328.94,768.873,384.007,412.734,36.6345,134.296,34.3071,5.71266
457.6,8173.0,458.232,3103.38,-1951.28,5069.62,3118.34,864.299,1102.85,487.574,490.467,23.4204,114.224,30.2956,5.20799
457.3,8573.0,457.932,3580.35,-1384.82,4992.65,3607.83,592.81,1640.47,637.478,592.085,14.9944,98.2787,26.9432,4.76716
457.0,9260.0,457.6318,4359.25,-313.701,4900.75,4587.04,426.968,2444.18,864.112,728.286,9.58578,85.4158,24.114,4.37988
456.7,10208.0,457.332,5421.04,1055.23,4786.96,5842.19,320.24,3274.42,1224.45,916.331,6.10479,74.8972,21.7052,4.03782
456.4,11447.0,457.032,6801.27,2060.89,4645.73,6706.63,248.227,3351.55,1828.18,1185.25,3.86563,66.1914,19.6381,3.73423
456.1,12470.0,456.732,7994.5,2839.74,4475.5,7315.24,197.635,2576.97,2872.31,1585.68,2.42987,58.9078,17.8513,3.46356
455.8,13541.0,456.432,9263.71,4447.34,4277.29,8724.63,160.864,1740.81,4541.84,2207.33,1.5142,52.755,16.2965,3.22123
455.5,14423.0,456.1318,10372.4,6651.49,4050.57,10702.1,133.363,1166.12,6132.7,3203.5,0.934393,47.512,14.9354,3.00342
455.2,15381.0,455.832,11583.3,7637.14,3797.67,11434.8,112.288,808.175,5655.87,4798.36,0.570439,43.0089,13.7373,2.80694
454.9,15499.0,455.532,11975.1,8149.31,3523.86,11673.2,95.8013,583.472,3825.31,7113.83,0.344244,39.1136,12.6772,2.6291
454.6,14754.0,455.232,11503,8789.73,3250.96,12040.7,82.6702,437.233,2398.72,9071.93,0.205208,35.7219,11.7348,2.46761
454.3,12877.0,454.932,9878.66,6173.77,2998.34,9172.11,72.0483,338.175,1554.67,7161.13,0.12076,32.7511,10.8934,2.32054
454.0,6979.0,454.6318,4145.67,1556.49,2833.33,4389.82,63.3383,268.55,1063.36,2952.05,0.070117,30.1345,10.1391,2.18621
453.7,4077.0,454.332,1298.28,-875.848,2778.72,1902.87,56.1097,218.005,764.247,825.124,0.0401501,27.8182,9.46027,2.06321
453.4,3386.0,454.032,626.482,-1732.2,2759.52,1027.32,50.046,180.273,572.28,188.143,0.0226637,25.7581,8.84722,1.95029
453.1,3142.0,453.732,394.035,-2038.44,2747.97,709.521,44.9109,151.426,443.031,36.085,0.0126065,23.9179,8.29174,1.84638
452.8,3039.0,453.432,298.331,-2181.3,2740.67,559.373,40.5246,128.909,352.383,5.74475,0.00690768,22.2675,7.78685,1.75055
452.5,2913.0,453.1318,178.571,-2269.56,2734.43,464.874,36.7489,111.017,286.588,0.745673,0.00372748,20.7817,7.32661,1.66198
452.2,2911.0,452.832,181.093,-2334.42,2729.91,395.491,33.4756,96.5764,237.434,0.0777503,0.00198028,19.4394,6.90592,1.57996
451.9,2879.0,452.532,152.794,-2384.77,2726.21,341.437,30.6199,84.7593,199.803,0.00643891,0.00103553,18.2228,6.52037,1.50386
451.6,2899.0,452.232,175.475,-2425.34,2723.52,298.188,28.1136,74.9712,170.386,0.000419931,0.000532873,17.1166,6.16618,1.43313
451.3,2867.0,451.932,146.492,-2457.54,2720.51,262.966,25.9022,66.7758,146.973,2.14285e-05,0.00026979,16.108,5.84002,1.36726
451.0,2787.0,451.6318,68.5313,-2484.61,2718.47,233.863,23.9413,59.8472,128.044,8.51332e-07,0.000134366,15.1857,5.53904,1.30583
450.7,2777.0,451.332,61.0,-2506.49,2716.0,209.513,22.1945,53.9383,112.531,2.62308e-08,6.58179e-05,14.3403,5.26069,1.24845
450.4,2842.0,451.032,126.0,-2527.09,2716.0,188.913,20.6317,48.8595,99.6609,6.24875e-10,3.17044e-05,13.5635,5.00279,1.19476
450.1,2808.0,450.732,92.0,-2544.68,2716.0,171.316,19.2281,44.4628,88.8697,1.14822e-11,1.50161e-05,12.848,4.76336,1.14447
450.0,2796.0,450.6318,80.0,-2549.98,2716.0,166.016,18.7919,43.1279,85.6582,2.85617e-12,1.16608e-05,12.622,4.68736,1.1284