Folder: python_code_MXene_VRFB/XPS/LG4X-result (part 11)

File: MX-UT-0.5-3-Ti2p.csv
#No of rows lightened (2D detector)1(if not using 2D detector, value is 1 and can be ignored!)
raw_x,raw_y,corrected x,data-bg,sum_components,bg,sum_fit,bg_poly_,C_1,C_2,C_3,C_4,C_5,C_6,C_7,C_8
470.0,425.0,470.6528,226.973,151.94,198.027,349.967,198.027,18.4912,37.6068,44.8741,3.52374,0.00278457,4.59607e-18,33.1223,14.3195
469.7,590.0,470.353,394.738,157.033,195.262,352.296,195.262,19.2089,39.1432,46.7848,3.7606,0.00300042,1.33688e-16,33.7851,14.3477
469.4,541.0,470.0528,348.497,162.394,192.503,354.897,192.503,19.9693,40.7756,48.8201,4.02242,0.00324349,3.43858e-15,34.4291,14.3746
469.1,552.0,469.753,362.251,168.047,189.749,357.796,189.749,20.7757,42.5123,50.991,4.31286,0.00351969,7.82064e-14,35.0513,14.4004
468.8,501.0,469.453,314,174.017,187,361.017,187,21.6319,44.3622,53.3099,4.63626,0.00383989,1.57282e-12,35.6484,14.4249
468.5,438.0,469.1528,253.744,180.335,184.256,364.592,184.256,22.5421,46.3354,55.7904,4.99783,0.00423186,2.79696e-11,36.2172,14.4482
468.2,498.0,468.853,316.482,187.035,181.518,368.553,181.518,23.511,48.4432,58.4479,5.40386,0.00478467,4.39795e-10,36.7545,14.4703
467.9,384.0,468.5528,205.216,194.157,178.784,372.941,178.784,24.5436,50.698,61.2997,5.862,0.00580367,6.11444e-09,37.257,14.4911
467.6,383.0,468.253,206.944,201.747,176.056,377.803,176.056,25.6458,53.1138,64.3651,6.38162,0.00831713,7.51592e-08,37.7213,14.5107
467.3,179.0,467.953,5.66717,209.859,173.333,383.192,173.333,26.8238,55.7063,67.6661,6.97431,0.0156186,8.16749e-07,38.1443,14.529
467.0,236.0,467.6528,65.3852,218.566,170.615,389.181,170.615,28.0848,58.4932,71.2272,7.65453,0.0376278,7.84554e-06,38.5228,14.5461
466.7,147.0,467.353,-20.9019,227.966,167.902,395.868,167.902,29.4368,61.4943,75.0766,8.44057,0.102305,6.66053e-05,38.8537,14.5619
466.4,118.0,467.0528,-47.1942,238.217,165.194,403.411,165.194,30.8887,64.7322,79.2463,9.35575,0.283218,0.00049962,39.1341,14.5764
466.1,157.0,466.753,-5.49151,249.601,162.492,412.092,162.492,32.4507,68.2324,83.7725,10.4303,0.760698,0.00331037,39.3614,14.5896
465.8,171.0,466.453,11.206,262.658,159.794,422.452,159.794,34.134,72.024,88.6971,11.7038,1.94564,0.0193659,39.5328,14.6016
465.5,222.0,466.1528,64.8985,278.454,157.102,435.556,157.102,35.9517,76.1403,94.0683,13.2293,4.70612,0.0999753,39.6462,14.6123
465.2,96.1832,465.853,-58.231,299.071,154.414,453.485,154.414,37.9184,80.6192,99.9415,15.0788,10.7369,0.455162,39.6995,14.6216
464.9,100.068,465.5528,-51.664,328.517,151.732,480.249,151.732,40.0507,85.5046,106.381,17.3526,23.081,1.82612,39.6908,14.6297
464.6,410.704,465.253,261.649,374.308,149.055,523.363,149.055,42.3679,90.8471,113.462,20.1936,46.7315,6.45069,39.6189,14.6365
464.3,227.762,464.953,81.3795,449.947,146.383,596.329,146.383,44.8919,96.7055,121.273,23.812,89.0961,20.0438,39.4824,14.642
464.0,709.502,464.6528,565.787,577.837,143.716,721.553,143.716,47.6479,103.148,129.916,28.528,159.943,54.7261,39.2808,14.6462
463.7,1025.64,464.353,884.582,790.443,141.054,931.497,141.054,50.6654,110.255,139.515,34.852,270.341,131.151,39.0136,14.6491
463.4,1373.28,464.0528,1234.88,1125.07,138.397,1263.47,138.397,53.9783,118.12,150.215,43.6477,430.218,275.561,38.6809,14.6507
463.1,1506.07,463.753,1370.32,1607.73,135.745,1743.47,135.745,57.6266,126.855,162.189,56.5007,644.599,507.023,38.2832,14.651
462.8,2333.59,463.453,2200.49,2228.43,133.098,2361.53,133.098,61.6569,136.592,175.65,76.7141,909.313,816.031,37.8212,14.65
462.5,2947.45,463.1528,2816.99,2924.16,130.457,3054.61,130.457,66.1244,147.487,190.851,112.513,1207.69,1147.54,37.2963,14.6477
462.2,3508.06,462.853,3380.24,3596.52,127.82,3724.34,127.82,71.0945,159.729,208.104,187.609,1510.15,1408.48,36.7102,14.6441
461.9,4300.89,462.553,4175.7,4181.14,125.188,4306.32,125.188,76.6453,173.545,227.795,367.231,1777.88,1507.33,36.0648,14.6391
461.6,4843,462.253,4720.44,4729.21,122.562,4851.77,122.562,82.8708,189.21,250.403,780.921,1970.62,1405.19,35.3628,14.6329
461.3,5441.79,461.953,5321.85,5356.43,119.94,5476.37,119.94,89.8846,207.058,276.528,1537.15,2056.47,1140.1,34.6069,14.6254
461.0,6109.28,461.6528,5991.96,5964.9,117.324,6082.23,117.324,97.8252,227.498,306.935,2459.31,2020.51,804.416,33.8003,14.6166
460.7,6032.9,461.353,5918.19,6099.69,114.712,6214.4,114.712,106.863,251.033,342.605,2989.4,1869.03,493.206,32.9466,14.6065
460.4,5739.74,461.053,5627.63,5416.84,112.106,5528.94,112.106,117.208,278.286,384.812,2699.53,1627.76,262.599,32.0495,14.595
460.1,4216.71,460.753,4107.21,4207.58,109.504,4317.09,109.504,129.126,310.036,435.24,1831.45,1334.7,121.341,31.1131,14.5823
459.8,3129.59,460.453,3022.68,3092.27,106.907,3199.17,106.907,142.949,347.265,496.136,982.198,1030.38,48.6336,30.1417,14.5684
459.5,2460.03,460.1528,2355.71,2394.89,104.316,2499.2,104.316,159.105,391.223,570.56,464.502,748.907,16.899,29.1397,14.5531
459.2,2173.42,459.853,2071.69,2072.04,101.729,2173.77,101.729,178.146,443.528,662.751,227.396,512.485,5.08849,28.1117,14.5366
458.9,2099.64,459.553,2000.49,1988.22,99.1477,2087.37,99.1477,200.799,506.304,778.683,129.339,330.186,1.32723,27.0624,14.5187
458.6,2112.86,459.253,2016.29,2063.52,96.5711,2160.09,96.5711,228.03,582.401,926.952,85.0526,200.292,0.299762,25.9965,14.4997
458.3,2301.48,458.953,2207.49,2272.13,93.9994,2366.13,93.9994,261.151,675.725,1120.11,61.2894,114.394,0.0586057,24.9187,14.4793
458.0,2794.32,458.6528,2702.89,2616.85,91.4327,2708.28,91.4327,301.971,791.776,1376.62,46.6622,61.5163,0.0099154,23.8338,14.4577
457.7,2899.37,458.353,2810.49,3120.02,88.8709,3208.89,88.8709,353.047,938.539,1723.25,36.8574,31.1497,0.00145135,22.7463,14.4349
457.4,3551.25,458.053,3464.93,3823.35,86.3141,3909.67,86.3141,418.072,1127.99,2196.45,29.9106,14.8543,0.00018375,21.6608,14.4108
457.1,4892,457.753,4808.24,4785.38,83.7623,4869.15,83.7623,502.531,1378.76,2837.66,24.7883,6.67296,2.01179e-05,20.5815,14.3855
456.8,6139.29,457.453,6058.07,6061.75,81.2153,6142.96,81.2153,614.832,1720.93,3668.39,20.8937,2.82592,1.90438e-06,19.5126,14.359
456.5,7626.39,457.1528,7547.71,7647.3,78.6733,7725.97,78.6733,768.321,2204.85,4622.35,17.8588,1.13018,1.55835e-07,18.458,14.3312
456.2,9414.75,456.853,9338.61,9391.14,76.1363,9467.28,76.1363,985.065,2916.44,5442.04,15.4454,0.428832,1.10218e-08,17.4214,14.3023
455.9,11077.2,456.553,11003.6,11020.9,73.6041,11094.5,73.6041,1303.23,3996.99,5676.34,13.4932,0.156296,6.73675e-10,16.4061,14.2721
455.6,12820.4,456.253,12749.3,12441.2,71.0768,12512.3,71.0768,1791.99,5620.8,4986.83,11.8909,0.0565509,3.55799e-11,15.4152,14.2408
455.3,13948.6,455.953,13880,13872.3,68.5545,13940.9,68.5545,2582.02,7680.79,3570.26,10.559,0.0219654,1.62355e-12,14.4515,14.2082
455.0,14903.8,455.6528,14837.8,14919.3,66.0371,14985.4,66.0371,3919.94,8894.01,2068.25,9.4397,0.0104237,6.40008e-14,13.5175,14.1745
454.7,14843,455.353,14779.5,14755.1,63.5245,14818.6,63.5245,6173.36,7560.17,986.3,8.48973,0.00655563,2.17933e-15,12.6152,14.1396
454.4,13617.5,455.053,13556.5,13807,61.0169,13868,61.0169,8511.01,4863.14,399.348,7.67646,0.0051177,6.40971e-17,11.7465,14.1036
454.1,8263.44,454.753,8204.93,8081.03,58.5141,8139.54,58.5141,5130.4,2777.18,141.494,6.97477,0.00443199,1.62816e-18,10.9129,14.0665
453.8,2343.84,454.453,2287.82,2234.63,56.0162,2290.64,56.0162,586.511,1572.87,44.7343,6.36508,0.00399088,3.57163e-20,10.1155,14.0282
453.5,878.861,454.1528,825.338,967.048,53.5232,1020.57,53.5232,10.1194,915.03,12.7187,5.83193,0.00364616,6.76576e-22,9.35519,13.9888
453.2,623.295,453.853,572.26,579.371,51.035,630.406,51.035,0.027134,548.144,3.25291,5.36299,0.00335355,1.10668e-23,8.63244,13.9483
452.9,597.839,453.553,549.288,363.634,48.5517,412.186,48.5517,1.12849e-05,336.082,0.746175,4.94834,0.00309763,1.56297e-25,7.94756,13.9067
452.6,334.363,453.253,288.289,235.346,46.0733,281.419,46.0733,7.1068e-10,209.446,0.152927,4.57988,0.00287107,1.90585e-27,7.30053,13.864
452.3,92.2082,452.953,48.6085,156.666,43.5997,200.266,43.5997,0.0,131.873,0.0278997,4.251,0.00266914,2.00635e-29,6.69111,13.8203
452.0,127.851,452.6528,86.7197,107.338,41.1309,148.469,41.1309,0.0,83.4806,0.00451625,3.95621,0.00248827,1.82343e-31,6.11881,13.7755
451.7,237.811,452.353,199.144,75.9327,38.667,114.6,38.667,0.0,52.9262,0.00064688,3.69095,0.00232553,1.43059e-33,5.58296,13.7296
451.4,67.5985,452.053,31.3906,55.7208,36.208,91.9287,36.208,0.0,33.5016,8.17962e-05,3.45141,0.00217855,9.68881e-36,5.08269,13.6828
451.1,178.085,451.753,144.332,42.608,33.7537,76.3617,33.7537,0.0,21.1197,9.11313e-06,3.23436,0.00204531,5.66415e-38,4.61699,13.6349
450.8,67.9201,451.453,36.6158,34.0425,31.3043,65.3468,31.3043,0.0,13.2329,8.9314e-07,3.03706,0.00192412,2.85822e-40,4.18469,13.586
450.5,206.475,451.1528,177.616,28.4066,28.8597,57.2663,28.8597,0.0,8.22695,7.68944e-08,2.8572,0.00181355,1.24491e-42,3.78453,13.5361
450.2,0.0,450.853,-26.4199,24.663,26.4199,51.0828,26.4199,0.0,5.06802,5.80879e-09,2.69278,0.00171238,4.68006e-45,3.41515,13.4853
450.0,4.0,450.6528,-20.796,22.8771,24.796,47.6731,24.796,0.0,3.6484,9.64837e-10,2.59088,0.00164962,1.04264e-46,3.1853,13.4509

File: MX-UT-0.5-4-Ti2p.csv
#No of rows lightened (2D detector)1(if not using 2D detector, value is 1 and can be ignored!)
raw_x,raw_y,corrected x,data-bg,sum_components,bg,sum_fit,TiC,Ti 2+,Ti 3+,C_4,C_5,C_6,C_7,C_8
470.0,15744.0,470.6528,425.0,-15226.5,15319.0,92.5027,19.9586,37.4276,29.4572,0.725963,4.08055e-09,5.52554e-14,4.93321,0.000141567
469.7,15909.0,470.353,590.0,-15222.9,15319.0,96.093,20.7322,38.9483,30.7181,0.774918,1.9918e-08,8.3667e-13,4.91931,0.0001411
469.4,15860.0,470.0528,541.0,-15219.1,15319.0,99.9117,21.5517,40.5636,32.0619,0.829021,9.25367e-08,1.14854e-11,4.9054,0.000140635
469.1,15871.0,469.753,552.0,-15215,15319.0,103.979,22.4206,42.2813,33.496,0.889024,4.09188e-07,1.42938e-10,4.89147,0.000140172
468.8,15820.0,469.453,501.0,-15210.7,15319.0,108.316,23.3432,44.1105,35.0286,0.955823,1.72215e-06,1.61272e-09,4.87754,0.00013971
468.5,15757.0,469.1528,438.0,-15206.1,15319.0,112.948,24.3239,46.0608,36.6691,1.03049,6.89862e-06,1.64962e-08,4.86359,0.000139249
468.2,15817.0,468.853,498.0,-15201.1,15319.0,117.903,25.3676,48.1433,38.4277,1.11431,2.63022e-05,1.52974e-07,4.84963,0.00013879
467.9,15703.0,468.5528,384.0,-15195.8,15319.0,123.211,26.4799,50.3701,40.3163,1.20886,9.54474e-05,1.28607e-06,4.83566,0.000138332
467.6,15702.0,468.253,383.0,-15190.1,15319.0,128.908,27.667,52.7549,42.3479,1.31606,0.000329667,9.80212e-06,4.82168,0.000137876
467.3,15498.0,467.953,179.0,-15184,15319.0,135.033,28.9356,55.3129,44.5373,1.43827,0.00108375,6.77307e-05,4.80769,0.000137421
467.0,15555.0,467.6528,236.0,-15177.4,15319.0,141.632,30.2934,58.0614,46.9015,1.57843,0.00339095,0.000424285,4.79369,0.000136968
466.7,15466.0,467.353,147.0,-15170.2,15319.0,148.761,31.749,61.0196,49.4595,1.74024,0.0100985,0.00240951,4.77967,0.000136516
466.4,15437.0,467.0528,118.0,-15162.5,15319.0,156.49,33.3119,64.2096,52.2331,1.92836,0.028624,0.0124047,4.76565,0.000136065
466.1,15476.0,466.753,157.0,-15154.1,15319.0,164.932,34.993,67.656,55.2474,2.14877,0.0772227,0.0578897,4.75162,0.000135616
465.8,15490.0,466.453,171.0,-15144.7,15319.0,174.313,36.8045,71.3871,58.5312,2.40921,0.19829,0.244862,4.73759,0.000135168
465.5,15541.0,466.1528,222.0,-15133.8,15319.0,185.18,38.7602,75.4351,62.1176,2.71984,0.484615,0.938534,4.72354,0.000134722
465.2,15413.0,465.853,96.1832,-15117.9,15316.8,198.947,40.8759,79.8367,66.0451,3.09422,1.12729,3.25856,4.70948,0.000134277
464.9,15413.0,465.5528,100.068,-15093.8,15312.9,219.147,43.1693,84.6345,70.3586,3.55086,2.49581,10.2421,4.69542,0.000133834
464.6,15718.0,465.253,410.704,-15053.5,15307.3,253.823,45.6609,89.8773,75.1105,4.11567,5.25933,29.1174,4.68135,0.000133392
464.3,15527.0,464.953,227.762,-14980.1,15299.2,319.177,48.3743,95.6218,80.3625,4.82626,10.5485,74.7762,4.66728,0.000132951
464.0,15995.0,464.6528,709.502,-14842.3,15285.5,443.164,51.3365,101.934,86.1878,5.74003,20.1367,173.176,4.65319,0.000132512
463.7,16293.0,464.353,1025.64,-14602.1,15267.4,665.232,54.5789,108.891,92.6733,6.9531,36.5872,360.91,4.6391,0.000132074
463.4,16614.0,464.0528,1373.28,-14214.4,15240.7,1026.36,58.1378,116.583,99.9232,8.66963,63.2717,675.151,4.62501,0.000131638
463.1,16714.0,463.753,1506.07,-13661.9,15207.9,1546.03,62.0557,125.118,108.063,11.577,104.143,1130.46,4.61091,0.000131203
462.8,17496.0,463.453,2333.59,-12968.5,15162.4,2193.89,66.3825,134.623,117.246,18.8647,163.152,1689.03,4.5968,0.000130769
462.5,18049.0,463.1528,2947.45,-12220.2,15101.6,2881.38,71.1769,145.25,127.659,44.6398,243.274,2244.8,4.58269,0.000130337
462.2,18532.0,462.853,3508.06,-11517.9,15023.9,3506.01,76.5087,157.182,139.534,137.336,345.255,2645.63,4.56857,0.000129906
461.9,19234.0,462.553,4300.89,-10886.8,14933.1,4046.3,82.4611,170.642,153.159,412.349,466.363,2756.77,4.55445,0.000129477
461.6,19673.0,462.253,4843,-10219.1,14830,4610.85,89.1339,185.901,168.901,1030.05,599.582,2532.74,4.54032,0.000129049
461.3,20153.0,461.953,5441.79,-9416.2,14711.2,5295.01,96.6478,203.291,187.226,2023.14,733.692,2046.48,4.5262,0.000128622
461.0,20689.0,461.6528,6109.28,-8668.46,14579.7,5911.25,105.15,223.228,208.737,3064.1,854.515,1451.02,4.51206,0.000128197
460.7,20471.0,461.353,6032.9,-8438.85,14438.1,5999.25,114.82,246.228,234.227,3551.23,947.254,900.996,4.49793,0.000127773
460.4,20044.0,461.053,5739.74,-9008.28,14304.3,5295.99,125.883,272.946,264.755,3139.38,999.433,489.109,4.48379,0.00012735
460.1,18407.0,460.753,4216.71,-10091,14190.3,4099.25,138.617,304.216,301.757,2114.77,1003.65,231.775,4.46965,0.000126929
459.8,17235.0,460.453,3129.59,-11117.4,14105.4,2988.03,153.374,341.108,347.227,1086.83,959.29,95.7507,4.45551,0.000126509
459.5,16505.0,460.1528,2460.03,-11745.4,14045,2299.6,170.605,385.013,403.981,428.424,872.689,34.4464,4.44136,0.00012609
459.2,16165.0,459.853,2173.42,-11984.3,13991.6,2007.3,190.89,437.748,476.112,131.71,755.63,10.7809,4.42722,0.000125673
458.9,16041.0,459.553,2099.64,-11991.6,13941.4,1949.75,214.991,501.713,569.726,33.2481,622.73,2.93302,4.41307,0.000125257
458.6,16004.0,459.253,2112.86,-11871.3,13891.1,2019.81,243.919,580.109,694.22,8.0087,488.462,0.693128,4.39892,0.000124842
458.3,16139.0,458.953,2301.48,-11645.1,13837.5,2192.38,279.042,677.247,864.449,2.44234,364.672,0.142194,4.38477,0.000124429
458.0,16574.0,458.6528,2794.32,-11289.8,13779.7,2489.91,322.238,799.029,1104.05,1.07071,259.128,0.0253099,4.37063,0.000124017
457.7,16615.0,458.353,2899.37,-10756.5,13715.6,2959.09,376.149,953.684,1449.08,0.569653,175.254,0.00390693,4.35648,0.000123606
457.4,17191.0,458.053,3551.25,-9977.28,13639.8,3662.47,444.57,1152.96,1947.47,0.320345,112.814,0.000522808,4.34233,0.000123196
457.1,18433.0,457.753,4892,-8876.64,13541,4664.36,533.098,1414.13,2643.5,0.182223,69.1187,6.0626e-05,4.32818,0.000122788
456.8,19552.0,457.453,6139.29,-7419.6,13412.7,5993.12,650.23,1763.42,3534.74,0.103544,40.3061,6.09046e-06,4.31404,0.000122382
456.5,20878.0,457.1528,7626.39,-5665.05,13251.6,7586.57,809.307,2241.76,4508.78,0.0584537,22.371,5.29906e-07,4.29989,0.000121976
456.2,22470.0,456.853,9414.75,-3781.08,13055.3,9274.17,1032.04,2913.56,5312.44,0.0326707,11.818,3.99209e-08,4.28575,0.000121572
455.9,23901.0,456.553,11077.2,-1955.31,12823.8,10868.5,1355.18,3874.14,5628.93,0.0180331,5.94209,2.60354e-09,4.27161,0.000121169
455.6,25372.0,456.253,12820.4,-216.931,12551.6,12334.7,1843.36,5221.18,5263.01,0.00981088,2.84365,1.46962e-10,4.25747,0.000120767
455.3,26196.0,455.953,13948.6,1510.67,12247.4,13758.1,2613.09,6842.93,4296.53,0.00525297,1.29525,7.17884e-12,4.24333,0.000120367
455.0,26821.0,455.6528,14903.8,2862.65,11917.2,14779.8,3868.18,7851.73,3055.13,0.00276455,0.561531,3.0342e-13,4.2292,0.000119968
454.7,26416.0,455.353,14843,3104.62,11573,14677.6,5877.53,6892.39,1903.25,0.00142864,0.231704,1.10947e-14,4.21507,0.00011957
454.4,24860.0,455.053,13617.5,2374.9,11242.5,13617.4,8018.71,4540.81,1053.59,0.000724309,0.0909983,3.50929e-16,4.20094,0.000119174
454.1,19243.0,454.753,8263.44,-2986.74,10979.6,7992.81,4926.02,2532.81,529.759,0.000360011,0.0340153,9.60074e-18,4.18682,0.000118778
453.8,13215.0,454.453,2343.84,-8800.83,10871.2,2070.33,476.27,1341.34,248.534,0.000175318,0.0121019,2.27159e-19,4.1727,0.000118384
453.5,11717.0,454.1528,878.861,-10009.7,10838.1,828.428,4.6962,707.908,111.661,8.36033e-05,0.00409805,4.64791e-21,4.15858,0.000117992
453.2,11444.0,453.853,623.295,-10391.6,10820.7,429.124,0.00452988,376.037,48.9374,3.90212e-05,0.00132081,8.22338e-23,4.14447,0.0001176
452.9,11405.0,453.553,597.839,-10581.5,10807.2,225.65,4.23939e-07,200.437,21.0821,1.78189e-05,0.000405175,1.25799e-24,4.13037,0.00011721
452.6,11133.0,453.253,334.363,-10679,10798.6,119.605,3.75243e-12,106.571,8.91733,7.95803e-06,0.000118301,1.66382e-26,4.11627,0.000116821
452.3,10885.0,452.953,92.2082,-10728.8,10792.8,63.9794,0.0,56.193,3.68402,3.47483e-06,3.28754e-05,1.90246e-28,4.10217,0.000116433
452.0,10917.0,452.6528,127.851,-10754.3,10789.1,34.8042,0.0,29.2381,1.47785,1.48299e-06,8.69554e-06,1.88048e-30,4.08808,0.000116047
451.7,11021.0,452.353,237.811,-10763.6,10783.2,19.5978,0.0,14.9509,0.572784,6.18461e-07,2.18908e-06,1.60687e-32,4.074,0.000115661
451.4,10847.0,452.053,67.5985,-10767.6,10779.4,11.7622,0.0,7.48846,0.213651,2.5197e-07,5.24528e-07,1.18632e-34,4.05993,0.000115277
451.1,10955.0,451.753,178.085,-10769.1,10776.9,7.78641,0.0,3.66398,0.076466,1.00267e-07,1.19623e-07,7.57763e-37,4.04586,0.000114895
450.8,10842.0,451.453,67.9201,-10768.3,10774.1,5.80547,0.0,1.74736,0.0261977,3.89637e-08,2.59659e-08,4.18341e-39,4.03179,0.000114513
450.5,10977.0,451.1528,206.475,-10765.7,10770.5,4.83717,0.0,0.810745,0.00857589,1.47834e-08,5.36453e-09,2.05398e-41,4.01774,0.000114133
450.2,10769.0,450.853,0.0,-10764.6,10769.0,4.3719,0.0,0.36542,0.00267834,5.47565e-09,1.05487e-09,1.06055e-43,4.00369,0.000113753
450.0,10773.0,450.6528,4.0,-10764.8,10769.0,4.20689,0.0,0.211245,0.00120034,2.78636e-09,3.4705e-10,0.0,3.99433,0.000113501