Folder: python_code_MXene_VRFB/XPS/LG4X-result (part 6)

File: MX-UT-0.1-2-C1s.csv
#No of rows lightened (2D detector)1(if not using 2D detector, value is 1 and can be ignored!)
raw_x,raw_y,corrected x,data-bg,sum_components,bg,sum_fit,C=C,pi-pi*,pi-pi*2,C-C,C-O,C_6,TiC
295.0,777.0,295.4017,46.0,-695.482,731.0,35.5178,11.2184,13.0095,0.0,3.63234,7.57824,0.0,0.0793732
294.8,732.0,295.202,1.0,-693.019,731.0,37.9808,11.6418,14.555,0.0,3.77729,7.92493,0.0,0.081799
294.6,810.0,295.002,79.0,-690.18,731.0,40.8197,12.0897,16.4187,0.0,3.93108,8.29587,0.0,0.0843377
294.4,731.0,294.802,0.0,-686.867,731.0,44.1333,12.564,18.6945,0.0,4.09446,8.69334,0.0,0.0869965
294.2,826.0,294.602,95.4273,-682.521,730.573,48.0517,13.0667,21.507,0.0,4.26822,9.11992,0.0,0.089783
294.0,771.0,294.4017,40.8036,-677.452,730.196,52.7447,13.6002,25.02,0.0,4.45328,9.57851,0.0,0.0927056
293.8,748.0,294.202,17.9916,-671.579,730.008,58.4294,14.1671,29.4435,0.0,4.65063,10.0724,0.0,0.0957734
293.6,747.0,294.002,17.187,-664.438,729.813,65.3751,14.7702,35.0393,0.0,4.86138,10.6052,0.0,0.0989959
293.4,789.0,293.802,59.4551,-655.642,729.545,73.9026,15.4127,42.1195,0.0,5.08678,11.1812,0.0,0.102384
293.2,834.0,293.602,105.013,-644.614,728.987,84.3737,16.098,51.0364,0.0,5.3282,11.8051,0.0,0.105949
293.0,809.0,293.4017,80.5451,-631.288,728.455,97.1669,16.8301,62.1576,0.0,5.58722,12.4823,0.0,0.109704
292.8,782.0,293.202,54.1129,-615.252,727.887,112.635,17.6132,75.8238,0.0,5.86556,13.2191,0.0,0.113661
292.6,867.0,293.002,139.732,-596.222,727.268,131.046,18.4524,92.2882,0.0,6.16521,14.0225,0.0,0.117837
292.4,898.0,292.802,171.736,-573.758,726.264,152.506,19.353,111.641,0.0,6.4884,14.9009,0.0,0.122248
292.2,884.0,292.602,158.707,-548.413,725.293,176.88,20.3212,133.73,0.0,6.83764,15.8636,0.0,0.126911
292.0,919.0,292.4017,194.892,-520.387,724.108,203.721,21.364,158.088,0.0,7.21582,16.9218,0.0,0.131845
291.8,991.0,292.202,268.385,-490.387,722.615,232.228,22.4891,183.887,0.0,7.62622,18.0884,0.0,0.137074
291.6,1002.0,292.002,281.03,-459.72,720.97,261.25,23.7056,209.951,0.0,8.0726,19.3785,0.0,0.14262
291.4,1010.0,291.802,290.899,-429.749,719.101,289.352,25.0236,234.811,0.0,8.55928,20.81,0.0,0.148509
291.2,1038.0,291.602,320.802,-402.254,717.198,314.944,26.4546,256.84,0.0,9.09126,22.404,0.0,0.154771
291.0,1073.0,291.4017,357.964,-378.576,715.036,336.46,28.0121,274.427,0.0,9.67432,24.1857,0.0,0.161438
290.8,1070.0,291.202,357.301,-360.136,712.699,352.563,29.7113,286.182,0.0,10.3152,26.1853,0.0,0.168545
290.6,1078.0,291.002,367.773,-347.889,710.227,362.338,31.5701,291.13,0.0,11.0218,28.4393,0.0,0.176132
290.4,1051.0,290.802,342.992,-342.572,708.008,365.436,33.609,288.848,0.0,11.8034,30.9916,0.0,0.184244
290.2,1037.0,290.602,331.068,-343.789,705.932,362.144,35.8521,279.531,0.0,12.671,33.8963,0.0,0.192929
290.0,1056.0,290.4017,352.292,-350.357,703.708,353.351,38.3276,263.964,0.0,13.6377,37.2199,0.0,0.202243
289.8,1025.0,290.202,323.288,-361.265,701.712,340.447,41.0688,243.402,0.0,14.7189,41.0444,0.0,0.212249
289.6,1037.0,290.002,337.404,-374.452,699.596,325.144,44.1152,219.399,0.0,15.9337,45.473,0.0,0.223017
289.4,1001.0,289.802,303.301,-388.411,697.699,309.288,47.5137,193.599,0.0,17.3047,50.6354,0.0,0.234625
289.2,972.0,289.602,276.148,-401.181,695.852,294.671,51.3208,167.546,0.0,18.86,56.6964,0.0,0.247165
289.0,992.0,289.4017,298.028,-411.067,693.972,282.905,55.6046,142.538,0.0,20.6339,63.8678,0.0,0.260738
288.8,945.0,289.202,252.825,-416.824,692.175,275.351,60.448,119.535,0.0,22.6691,72.4237,0.0,0.275461
288.6,975.0,289.002,284.56,-417.322,690.44,273.118,65.9521,99.1333,0.0,25.0194,82.7217,0.0,0.291468
288.4,989.0,288.802,300.35,-411.517,688.65,277.134,72.2422,81.5964,0.0,27.7531,95.2329,0.0,0.308913
288.2,1044.0,288.602,357.277,-398.47,686.723,288.254,79.4732,66.9147,0.0,30.9576,110.58,0.0,0.327973
288.0,1008.0,288.4017,323.516,-377.072,684.484,307.412,87.8394,54.8859,0.0,34.7469,129.591,0.0,0.348854
287.8,1083.0,288.202,400.841,-346.379,682.159,335.779,97.5857,45.1938,0.0,39.2711,153.357,0.0,0.371797
287.6,1079.0,288.002,399.285,-304.792,679.715,374.923,109.024,37.4748,0.0,44.7316,183.295,0.0,0.397082
287.4,1153.0,287.802,476.058,-250.021,676.942,426.921,122.555,31.3672,0.0,51.4027,221.172,0.0,0.425039
287.2,1178.0,287.602,504.172,-179.494,673.828,494.334,138.698,26.542,0.0,59.6658,268.972,0.0,0.456058
287.0,1254.0,287.4017,583.733,-90.4598,670.267,579.807,158.139,22.7185,0.0,70.0628,328.396,0.0,0.490605
286.8,1329.0,287.202,662.55,18.4274,666.45,684.877,181.796,19.6675,0.0,83.3825,399.502,0.0,0.529236
286.6,1449.0,287.002,787,145.546,662,807.545,210.925,17.2091,0.0,100.806,478.032,0.0,0.572621
286.4,1590.0,286.802,933.59,282.902,656.41,939.312,247.29,15.2049,0.0,124.158,552.038,0.0,0.621576
286.2,1649.0,286.602,998.714,415.506,650.286,1065.79,293.451,13.5506,0.0,156.357,601.757,0.0,0.677097
286.0,1812.0,286.4017,1168.58,533.712,643.418,1177.13,353.28,12.1683,0.0,202.263,608.678,0.0,0.740415
285.8,1962.0,286.202,1326.55,649.463,635.452,1284.92,432.933,10.9995,0.0,270.298,569.872,0.0,0.813065
285.6,2124.0,286.002,1497.18,803.16,626.819,1429.98,542.823,10.0009,0.0,375.614,500.644,0.0,0.896977
285.4,2305.0,285.802,1688.16,1062.92,616.842,1679.76,702.01,9.13924,0.0,545.822,421.791,0.0,0.994612
285.2,2797.0,285.602,2192.36,1529.04,604.639,2133.68,949.232,8.38957,0.0,827.125,347.822,0.0,1.10914
285.0,3345.0,285.4017,2756.08,2341.82,588.92,2930.74,1375.88,7.73238,0.0,1260.99,284.901,0.0,1.24471
284.8,4586.0,285.202,4018.56,3639.09,567.439,4206.53,2252.24,7.15242,0.0,1711.85,233.879,0.0,1.40681
284.6,7339.0,285.002,6805.29,5954.98,533.709,6488.69,4570.09,6.63759,0.0,1717.02,193.34,0.0,1.6029
284.4,12716.0,284.802,12241.2,11790,474.825,12264.8,10826,6.17814,0.0,1269.44,161.303,0.0,1.84321
284.2,20094.0,284.602,19721.3,19596.3,372.667,19969,18992,5.76615,0.0,833.191,135.915,0.0,2.14218
284.0,18010.0,284.4017,17761.5,17174.6,248.529,17423.1,16750,5.39511,0.0,549.518,115.656,0.0,2.52069
283.8,8055.0,284.202,7887.32,7711.93,167.682,7879.61,7394.33,5.05963,0.0,377.863,99.3448,0.0,3.0099
283.6,2738.0,284.002,2601.02,2618.13,136.978,2755.11,2388.89,4.75519,0.0,271.72,86.0859,0.0,3.658
283.4,1346.0,283.802,1220.38,1054.15,125.617,1179.77,892.343,4.47799,0.0,203.204,75.2024,0.0,4.54287
283.2,786.0,283.602,666.137,524.277,119.863,644.14,410.928,4.2248,0.0,157.006,66.1842,0.0,5.79749
283.0,525.0,283.4017,408.411,290.44,116.589,407.029,212.106,3.99289,0.0,124.621,58.6441,0.0,7.66539
282.8,419.0,283.202,304.598,169.622,114.402,284.025,116.174,3.77988,0.0,101.147,52.2863,0.0,10.6367
282.6,356.0,283.002,243.399,103.064,112.601,215.665,65.7155,3.58375,0.0,83.6404,46.883,0.0,15.8425
282.4,301.0,282.802,189.767,69.0395,111.233,180.272,37.8,3.40272,0.0,70.2621,42.2571,0.0,26.5504
282.2,334.0,282.602,224.115,69.2682,109.885,179.153,21.8928,3.23526,0.0,59.8229,38.2696,0.0,55.9327
282.0,381.0,282.4017,272.668,152.025,108.332,260.357,12.6815,3.08004,0.0,51.5286,34.8105,0.0,158.257
281.8,588.0,282.202,481.899,387.9,106.101,494.001,7.31141,2.93586,0.0,44.834,31.7922,0.0,407.128
281.6,748.0,282.002,645.604,552.534,102.396,654.93,4.18046,2.8017,0.0,39.3554,29.144,0.0,579.448
281.4,608.0,281.802,509.356,357.563,98.6441,456.208,2.36392,2.67664,0.0,34.8171,26.8088,0.0,389.541
281.2,295.0,281.602,198.414,111.063,96.5861,207.649,1.31909,2.55985,0.0,31.0168,24.7397,0.0,148.013
281.0,194.0,281.4017,98.2893,11.1163,95.7107,106.827,0.725069,2.45063,0.0,27.8033,22.8984,0.0,52.9495
280.8,173.0,281.202,77.8491,-20.4961,95.1509,74.6548,0.392035,2.34832,0.0,25.0625,21.2529,0.0,25.599
280.6,132.0,281.002,37.2027,-34.4331,94.7973,60.3643,0.208252,2.25234,0.0,22.7062,19.7768,0.0,15.4206
280.4,140.0,280.802,45.455,-42.752,94.545,51.793,0.108576,2.16219,0.0,20.6661,18.4478,0.0,10.4083
280.2,133.0,280.602,38.6852,-48.5197,94.3148,45.795,0.0555121,2.07739,0.0,18.8882,17.2472,0.0,7.52671
280.0,117.0,280.4017,22.8581,-52.9213,94.1419,41.2206,0.0278121,1.99752,0.0,17.3296,16.1591,0.0,5.70666
279.8,135.0,280.202,41.0447,-56.4138,93.9553,37.5415,0.0136457,1.92221,0.0,15.9556,15.17,0.0,4.48003
279.6,120.0,280.002,26.2691,-59.2538,93.7309,34.4771,0.00655289,1.85111,0.0,14.7384,14.2683,0.0,3.61267
279.4,131.0,279.802,37.4726,-61.6651,93.5274,31.8623,0.00307849,1.78392,0.0,13.655,13.4441,0.0,2.97611
279.2,114.0,279.602,20.633,-63.7749,93.367,29.592,0.00141424,1.72034,0.0,12.6866,12.6888,0.0,2.49481
279.0,135.0,279.4017,41.8357,-65.5691,93.1643,27.5952,0.000635078,1.66013,0.0,11.8174,11.9951,0.0,2.12191
278.8,101.0,279.202,8.0,-67.1788,93.0,25.8212,0.000278678,1.60304,0.0,11.0345,11.3564,0.0,1.82704
278.6,99.0,279.002,6.0,-68.7675,93.0,24.2325,0.000119459,1.54887,0.0,10.3267,10.767,0.0,1.58979
278.4,104.0,278.802,11.0,-70.1996,93.0,22.8004,5.00103e-05,1.49741,0.0,9.68471,10.2222,0.0,1.39604
278.2,112.0,278.602,19.0,-71.4976,93.0,21.5024,2.04417e-05,1.4485,0.0,9.10073,9.71746,0.0,1.23574
278.0,126.0,278.4017,33.0,-72.6795,93.0,20.3205,8.15639e-06,1.40195,0.0,8.56793,9.24902,0.0,1.1016
277.8,102.0,278.202,9.0,-73.7601,93.0,19.2399,3.17624e-06,1.35763,0.0,8.08052,8.8135,0.0,0.988208
277.6,102.0,278.002,9.0,-74.7517,93.0,18.2483,1.20694e-06,1.31538,0.0,7.6335,8.4079,0.0,0.891494
277.4,101.0,277.802,8.0,-75.6645,93.0,17.3355,4.47447e-07,1.27509,0.0,7.22252,8.02955,0.0,0.808333
277.3,98.0,277.702,5.0,-76.0941,93.0,16.9059,2.69917e-07,1.25564,0.0,7.02935,7.84984,0.0,0.771056

File: MX-UT-0.1-2-Ti2p.csv
#No of rows lightened (2D detector)1(if not using 2D detector, value is 1 and can be ignored!)
raw_x,raw_y,corrected x,data-bg,sum_components,bg,sum_fit,C_1,C_2,C_3,C_4,C_5,C_6,C_7
470.0,520.0,470.4017,520.0,119.88,0.0,119.88,22.8508,16.2647,12.0163,23.2077,24.6389,16.6528,4.24917
469.7,538.0,470.102,538.0,126.983,0.0,126.983,23.7611,16.9475,12.5555,24.7411,26.4229,18.0778,4.47732
469.4,287.0,469.8017,287.0,134.787,0.0,134.787,24.727,17.6742,13.1318,26.4313,28.4071,19.6912,4.72434
469.1,490.0,469.5017,490.0,143.392,0.0,143.392,25.7529,18.4487,13.7487,28.3003,30.6223,21.5264,4.99236
468.8,377.0,469.202,377.0,152.917,0.0,152.917,26.8439,19.2752,14.4101,30.3742,33.105,23.6245,5.28384
468.5,380.0,468.9017,380.0,163.505,0.0,163.505,28.0058,20.1585,15.1204,32.6837,35.8993,26.0356,5.60158
468.2,454.0,468.602,454.0,175.327,0.0,175.327,29.2448,21.1038,15.8845,35.2652,39.0581,28.8219,5.94883
467.9,104.0,468.3017,104.0,188.591,0.0,188.591,30.5677,22.1172,16.7079,38.1626,42.6456,32.061,6.32937
467.6,367.0,468.0017,367.0,203.551,0.0,203.551,31.9825,23.2054,17.5971,41.4282,46.7399,35.8506,6.74756
467.3,391.0,467.702,391.0,220.519,0.0,220.519,33.4977,24.3758,18.5591,45.1256,51.4368,40.3157,7.20853
467.0,450.0,467.4017,450.0,239.884,0.0,239.884,35.1232,25.637,19.6022,49.3314,56.8543,45.6179,7.71827
466.7,158.0,467.102,158.0,262.137,0.0,262.137,36.8698,26.9987,20.7356,54.1394,63.1394,51.9706,8.28388
466.4,274.0,466.8017,274.0,287.908,0.0,287.908,38.7499,28.4716,21.9702,59.6649,70.4767,59.6613,8.91373
466.1,193.0,466.5017,193.0,318.019,0.0,318.019,40.7775,30.0684,23.3183,66.0502,79.1007,69.0865,9.61778
465.8,284.0,466.202,284.0,353.57,0.0,353.57,42.9685,31.8032,24.7943,73.4731,89.3138,80.8091,10.408
465.5,240.86,465.9017,240.86,396.071,0.0,396.071,45.3406,33.6926,26.4147,82.1577,101.513,95.6538,11.2986
465.2,354.809,465.602,354.809,447.667,0.0,447.667,47.9147,35.7552,28.1991,92.3901,116.227,114.874,12.307
464.9,246.146,465.3017,246.146,511.527,0.0,511.527,50.7141,38.013,30.1701,104.541,134.182,140.454,13.454
464.6,502.77,465.0017,502.77,592.554,0.0,592.554,53.766,40.4914,32.3546,119.099,156.396,175.681,14.7653
464.3,750.445,464.702,750.445,698.731,0.0,698.731,57.1017,43.22,34.7842,136.724,184.347,226.281,16.2722
464.0,616.046,464.4017,616.046,843.756,0.0,843.756,60.7573,46.2337,37.4966,158.323,220.252,302.68,18.0137
463.7,977.974,464.102,977.974,1051.77,0.0,1051.77,64.7752,49.5735,40.5367,185.188,267.567,424.091,20.0381
463.4,1231.56,463.8017,1231.56,1361.18,0.0,1361.18,69.2047,53.2882,43.9583,219.207,331.937,621.179,22.4066
463.1,1675.15,463.5017,1675.15,1798.19,0.0,1798.19,74.104,57.436,47.8262,263.253,423.025,907.348,25.1973
462.8,1968.62,463.202,1968.62,2260.01,0.0,2260.01,79.5418,62.0867,52.2191,321.873,558.189,1157.59,28.5112
462.5,2410.74,462.9017,2410.74,2517.05,0.0,2517.05,85.6,67.3249,57.2326,402.602,769.546,1102.26,32.4817
462.2,2772.99,462.602,2772.99,2656.43,0.0,2656.43,92.3765,73.2538,62.9838,518.561,1112.78,759.183,37.2883
461.9,3176.52,462.302,3176.52,3060.04,0.0,3060.04,99.9894,80.0001,69.6175,693.641,1643.68,429.938,43.1791
461.6,3833.68,462.002,3833.68,3766.07,0.0,3766.07,108.582,87.7207,77.3136,971.874,2236.39,233.678,50.5057
461.3,3992.3,461.702,3992.3,4292.55,0.0,4292.55,118.329,96.6121,86.2979,1423.54,2376.81,131.181,59.7836
461.0,4409.26,461.4017,4409.26,4370.41,0.0,4370.41,129.446,106.923,96.858,2079.34,1809.15,76.9036,71.7962
460.7,4197.78,461.102,4197.78,4230.47,0.0,4230.47,142.204,118.97,109.364,2652.81,1072.64,46.7031,87.7835
460.4,3406.79,460.802,3406.79,3662.88,0.0,3662.88,156.939,133.163,124.301,2526.02,583.568,29.0893,109.801
460.1,2629.36,460.502,2629.36,2689.15,0.0,2689.15,174.08,150.039,142.318,1739.79,323.059,18.4297,141.426
459.8,1745.14,460.202,1745.14,1901.81,0.0,1901.81,194.178,170.304,164.304,985.274,186.773,11.8014,189.175
459.5,1664.84,459.9017,1664.84,1524.76,0.0,1524.76,217.948,194.909,191.506,535.512,112.23,7.60089,265.057
459.2,1580.99,459.602,1580.99,1460.35,0.0,1460.35,246.33,225.136,225.732,300.622,69.3865,4.9055,388.237
458.9,1617.14,459.302,1617.14,1603.25,0.0,1603.25,280.571,262.748,269.696,176.237,43.7461,3.16309,567.093
458.6,1920.16,459.002,1920.16,1820.67,0.0,1820.67,322.352,310.197,327.633,107.028,27.9301,2.03297,723.494
458.3,2163.54,458.702,2163.54,1926.21,0.0,1926.21,373.96,370.957,406.454,66.6631,17.9626,1.29993,688.915
458.0,2093.08,458.4017,2093.08,1935.75,0.0,1935.75,438.551,450.072,517.989,42.2347,11.5891,0.825661,474.489
457.7,2630.85,458.102,2630.85,2062.9,0.0,2062.9,520.551,555.096,683.497,27.0448,7.47707,0.520259,268.711
457.4,3050.77,457.802,3050.77,2435.03,0.0,2435.03,626.291,697.833,942.301,17.4187,4.81194,0.324864,146.049
457.1,4005.26,457.502,4005.26,3121.88,0.0,3121.88,765.075,897.703,1362.59,11.2418,3.08272,0.20084,81.9878
456.8,4728.53,457.202,4728.53,4209.73,0.0,4209.73,951.079,1188.59,2012.67,7.24875,1.96269,0.122836,48.0647
456.5,5662.28,456.9017,5662.28,5613.45,0.0,5613.45,1206.93,1632.92,2738.44,4.65889,1.24017,0.0742732,29.1895
456.2,6888.22,456.602,6888.22,6850.31,0.0,6850.31,1570.8,2347.15,2910.38,2.979,0.776824,0.0443726,18.1808
455.9,8090.18,456.302,8090.18,7846.96,0.0,7846.96,2110.97,3506.78,2215.28,1.89214,0.4819,0.0261788,11.5186
455.6,9115.49,456.002,9115.49,9298.98,0.0,9298.98,2955.22,5021.45,1313.43,1.19226,0.295818,0.0152455,7.37586
455.3,10079.6,455.702,10079.6,10514.4,0.0,10514.4,4332.67,5461.51,714.573,0.744481,0.179563,0.00876019,4.75056
455.0,10425.1,455.4017,10425.1,10599.9,0.0,10599.9,6471.63,3729,395.583,0.460259,0.107713,0.00496494,3.06594
454.7,10328.9,455.102,10328.9,10604.2,0.0,10604.2,8523.6,1849.54,228.702,0.281499,0.0638176,0.00277462,1.97693
454.4,8725.19,454.802,8725.19,8606.51,0.0,8606.51,7617.5,850.105,137.424,0.170209,0.0373279,0.00152848,1.27061
454.1,3292.71,454.502,3292.71,4861.62,0.0,4861.62,4377.35,398.368,84.9631,0.101687,0.0215459,0.000829788,0.812455
453.8,907.23,454.202,907.23,2300.99,0.0,2300.99,2055.12,191.708,53.5666,0.0599931,0.0122679,0.000443842,0.516038
453.5,668.211,453.9017,668.211,1076.77,0.0,1076.77,948.625,93.5771,34.2002,0.0349375,0.0068883,0.000233858,0.325162
453.2,418.482,453.602,418.482,518.135,0.0,518.135,450.172,45.7409,21.995,0.0200754,0.00381293,0.000121353,0.20304
452.9,358.826,453.302,358.826,254.839,0.0,254.839,218.347,22.1626,14.1907,0.011378,0.00208015,6.20091e-05,0.125525
452.6,181.946,453.002,181.946,126.599,0.0,126.599,106.797,10.5623,9.15559,0.00635851,0.00111819,3.11954e-05,0.0767725
452.3,123.207,452.702,123.207,62.9262,0.0,62.9262,52.0612,4.92229,5.89217,0.00350276,0.000592144,1.54488e-05,0.0464208
452.0,138.229,452.4017,138.229,31.1033,0.0,31.1033,25.0657,2.23298,3.77475,0.0019016,0.000308847,7.53029e-06,0.0277329
451.7,55.9471,452.102,55.9471,15.2414,0.0,15.2414,11.8379,0.982593,2.4033,0.00101714,0.000158631,3.6123e-06,0.0163617
451.4,11.7655,451.802,11.7655,7.4024,0.0,7.4024,5.45545,0.41823,1.51857,0.000535924,8.02208e-05,1.70515e-06,0.00952841
451.1,43.0,451.502,43.0,3.57215,0.0,3.57215,2.44334,0.1718,0.951213,0.000278102,3.9937e-05,7.91956e-07,0.00547512
450.8,119.0,451.202,119.0,1.72143,0.0,1.72143,1.0601,0.0679815,0.590081,0.000142104,1.95701e-05,3.61874e-07,0.00310309
450.5,164.0,450.9017,164.0,0.834351,0.0,0.834351,0.444437,0.0258733,0.362226,7.14896e-05,9.43812e-06,1.62664e-07,0.00173414
450.2,181.0,450.602,181.0,0.409995,0.0,0.409995,0.179668,0.00945902,0.219873,3.54036e-05,4.4792e-06,7.19231e-08,0.000955297
450.0,118.0,450.4017,118.0,0.25817,0.0,0.25817,0.0961819,0.00472683,0.1566,2.19665e-05,2.70091e-06,4.1361e-08,0.00063678