Folder: python_code_MXene_VRFB/XPS/LG4X-result (part 9)

File: MX-UT-0.5-1-C1s.csv
#No of rows lightened (2D detector)1(if not using 2D detector, value is 1 and can be ignored!)
raw_x,raw_y,corrected x,data-bg,sum_components,bg,sum_fit,C=C,pi-pi*,pi-pi*2,C-C,C-O,C=O,TiC
294.7,745.0,295.353,12.0,-697.359,733.0,35.6409,18.3976,7.88582,0.0544584,6.59665,1.97453,0.656539,0.0753631
294.5,747.0,295.1528,14.0216,-693.725,732.978,39.2535,19.0949,8.89742,1.55429,6.86721,2.06642,0.695652,0.0776752
294.3,787.0,294.953,54.2467,-678.185,732.753,54.5683,19.8326,10.1547,14.4428,7.15489,2.16486,0.738357,0.0800954
294.1,845.0,294.753,112.714,-645.629,732.286,86.6576,20.6139,11.7502,43.6941,7.46117,2.27048,0.785103,0.0826305
293.9,828.0,294.553,96.2287,-642.381,731.771,89.3905,21.4423,13.8176,43.0371,7.78772,2.38399,0.836418,0.085288
293.7,783.0,294.353,51.7407,-666.967,731.259,64.2926,22.3217,16.5462,13.8011,8.13636,2.5062,0.892912,0.0880758
293.5,782.0,294.1528,51.086,-673.825,730.914,57.089,23.2563,20.1983,1.44091,8.50917,2.63802,0.955305,0.0910025
293.3,805.0,293.953,74.4397,-668.328,730.56,62.2322,24.2508,25.1249,0.048979,8.90845,2.78047,1.02444,0.0940776
293.1,803.0,293.753,72.9451,-659.498,730.055,70.5568,25.3106,31.7756,0.000542043,9.33679,2.93474,1.10133,0.0973114
292.9,823.0,293.553,93.4289,-648.248,729.571,81.3226,26.4413,40.6942,1.95303e-06,9.79711,3.10215,1.18716,0.100715
292.7,817.0,293.353,87.8695,-634.024,729.13,95.1062,27.6496,52.492,2.29104e-09,10.2927,3.28423,1.28337,0.1043
292.5,829.0,293.1528,100.492,-615.967,728.508,112.542,28.9426,67.7893,8.75002e-13,10.8273,3.48274,1.3917,0.10808
292.3,881.0,292.953,153.269,-593.551,727.731,134.18,30.3285,87.1203,1.08802e-16,11.4052,3.69971,1.51424,0.11207
292.1,859.0,292.753,132.279,-566.361,726.721,160.36,31.8163,110.805,4.40467e-21,12.0313,3.93748,1.65359,0.116284
291.9,940.0,292.553,214.414,-534.524,725.586,191.062,33.4164,138.802,5.80552e-26,12.7111,4.19879,1.81294,0.120741
291.7,918.0,292.353,193.619,-498.611,724.381,225.769,35.1403,170.569,2.49127e-31,13.451,4.48683,1.99626,0.12546
291.5,931.0,292.1528,207.96,-459.665,723.04,263.375,37.0011,204.971,3.48056e-37,14.2585,4.80533,2.20857,0.13046
291.3,1036.0,291.953,314.605,-419.228,721.395,302.167,39.0138,240.26,1.58318e-43,15.1422,5.15873,2.45624,0.135766
291.1,1082.0,291.753,362.743,-379.324,719.257,339.933,41.1952,274.185,2.34456e-50,16.1121,5.55227,2.74749,0.141402
290.9,1146.0,291.553,429.067,-342.756,716.933,374.177,43.5649,304.199,1.13043e-57,17.1801,5.9922,3.093,0.147397
290.7,1111.0,291.353,396.394,-312.174,714.606,402.431,46.1451,327.779,1.77449e-65,18.3601,6.48604,3.50691,0.153781
290.5,1132.0,291.1528,419.924,-289.453,712.076,422.622,48.9615,342.781,9.06897e-74,19.6687,7.04287,4.00816,0.160589
290.3,1121.0,290.953,411.571,-276.025,709.429,433.404,52.0438,347.77,1.50901e-82,21.1257,7.67376,4.62257,0.16786
290.1,1172.0,290.753,465.284,-272.32,706.716,434.395,55.4266,342.26,8.17479e-92,22.7548,8.39225,5.38597,0.175637
289.9,1103.0,290.553,398.986,-277.741,704.014,426.272,59.1503,326.789,1.44182e-101,24.5851,9.21511,6.34904,0.183967
289.7,1103.0,290.353,401.5,-290.814,701.5,410.686,63.2623,302.831,8.27938e-112,26.6517,10.1632,7.58495,0.192904
289.5,1070.0,290.1528,370.926,-309.031,699.074,390.044,67.8185,272.56,1.54787e-122,28.9979,11.2629,9.20177,0.202509
289.3,1040.0,289.953,343.047,-329.759,696.953,367.193,72.8852,238.508,9.42154e-134,31.6774,12.5476,11.3625,0.212851
289.1,1053.0,289.753,358.156,-349.731,694.844,345.113,78.5417,203.213,1.86707e-145,34.7566,14.0603,14.3182,0.224005
288.9,1086.0,289.553,393.41,-365.93,692.59,326.661,84.8833,168.907,1.20462e-157,38.3187,15.8567,18.4592,0.236061
288.7,980.0,289.353,289.55,-376.005,690.45,314.445,92.025,137.306,2.5304e-170,42.4677,18.0102,24.3875,0.249117
288.5,1017.0,289.1528,328.442,-377.754,688.558,310.804,100.108,109.516,1.73053e-183,47.3328,20.6187,32.9651,0.263288
288.3,1018.0,288.953,331.466,-368.895,686.534,317.639,109.304,86.0518,3.85319e-197,53.0745,23.8141,45.1161,0.278705
288.1,1016.0,288.753,331.406,-349.245,684.594,335.349,119.828,66.9325,2.79327e-211,59.8891,27.7772,60.6268,0.295517
287.9,1046.0,288.553,363.49,-322.591,682.51,359.919,131.949,51.824,6.59257e-226,68.0125,32.7588,75.061,0.3139
287.7,1060.0,288.353,379.751,-297.829,680.249,382.42,146.006,40.1851,5.0658e-241,77.7215,39.1113,79.0621,0.334054
287.5,1121.0,288.1528,443.271,-277.778,677.729,399.951,162.436,31.394,1.26734e-256,89.3287,47.334,69.1024,0.356215
287.3,1087.0,287.953,411.752,-253.703,675.248,421.544,181.804,24.8418,1.03225e-272,103.171,58.1345,53.2128,0.38066
287.1,1110.0,287.753,437.386,-216.235,672.614,456.379,204.854,19.9887,2.73736e-289,119.585,72.5004,39.0429,0.407713
286.9,1159.0,287.553,489.372,-160.984,669.628,508.643,232.582,16.3904,2.36335e-306,138.873,91.7337,28.6265,0.43776
286.7,1241.0,287.353,574.665,-85.8881,666.335,580.447,266.344,13.7004,0.0,161.25,117.292,21.3895,0.471259
286.5,1293.0,287.1528,630.407,10.7487,662.593,673.341,308.018,11.6606,0.0,186.786,149.993,16.3746,0.508762
286.3,1497.0,286.953,838.952,128.83,658.048,786.878,360.263,10.0847,0.0,215.336,187.804,12.839,0.550934
286.1,1597.0,286.753,944.294,262.692,652.706,915.398,426.92,8.84164,0.0,246.479,222.272,10.2876,0.598584
285.9,1667.0,286.553,1020.32,402.02,646.678,1048.7,513.66,7.84044,0.0,279.471,238.673,8.40192,0.652707
285.7,1773.0,286.353,1133.07,544.494,639.935,1184.43,629.072,7.0182,0.0,313.232,227.416,6.97666,0.714533
285.5,1907.0,286.1528,1274.85,709.04,632.153,1341.19,786.557,6.33125,0.0,346.374,195.267,5.8772,0.785599
285.3,2190.0,285.953,1566.74,930.766,623.264,1554.03,1007.92,5.74889,0.0,377.285,157.191,5.01349,0.867848
285.1,2492.0,285.753,1879.33,1256.18,612.67,1868.85,1330.89,5.24911,0.0,404.252,123.172,4.32389,0.963762
284.9,2917.0,285.553,2317.17,1758.39,599.827,2358.22,1826.7,4.81578,0.0,425.631,96.225,3.76528,1.07656
284.7,3788.0,285.353,3205.19,2589.63,582.811,3172.45,2647.61,4.43682,0.0,440.026,75.8584,3.30694,1.21045
284.5,5145.0,285.1528,4585.55,4131.38,559.449,4690.83,4175.33,4.10295,0.0,446.45,60.6459,2.92652,1.37108
284.3,8704.0,284.953,8182.54,7475.8,521.458,7997.26,7495.6,3.80693,0.0,444.453,49.231,2.60749,1.5661
284.1,15457.0,284.753,15005.6,14554.1,451.446,15005.6,14523.2,3.54299,0.0,434.176,40.5643,2.33745,1.80614
283.9,21076.0,284.553,20736.7,20336.8,339.258,20676.1,20218.3,3.30647,0.0,416.333,33.8885,2.10694,2.1063
283.7,14300.0,284.353,14071.5,13564.6,228.471,13793,13364.8,3.09357,0.0,392.123,28.6685,1.90866,2.48865
283.5,5126.0,284.1528,4953.9,5050.69,172.095,5222.78,4827.55,2.90115,0.0,363.081,24.5273,1.73692,2.98649
283.3,2020.0,283.953,1867.4,1766.53,152.596,1919.13,1559.06,2.72659,0.0,330.906,21.1968,1.58722,3.65212
283.1,1070.0,283.753,925.554,739.146,144.446,883.592,559.23,2.56769,0.0,297.282,18.4845,1.45595,4.5717
282.9,711.0,283.553,571.109,365.161,139.891,505.053,215.415,2.42258,0.0,263.729,16.25,1.34024,5.89615
282.7,495.0,283.353,357.957,205.114,137.043,342.157,84.8327,2.28969,0.0,231.496,14.3897,1.23772,7.91194
282.5,400.0,283.1528,264.843,126.857,135.157,262.014,33.1409,2.16764,0.0,201.505,12.826,1.14648,11.2287
282.3,363.0,282.953,229.395,85.3752,133.605,218.981,12.6072,2.05527,0.0,174.343,11.5002,1.06493,17.4101
282.1,358.0,282.753,225.768,68.1747,132.232,200.407,4.61369,1.95156,0.0,150.294,10.367,0.991742,32.1883
281.9,396.0,282.553,265.262,97.7986,130.738,228.536,1.61062,1.85563,0.0,129.394,9.39124,0.925821,85.3585
281.7,550.0,282.353,421.271,279.358,128.729,408.087,0.533095,1.76671,0.0,111.497,8.5455,0.866238,284.879
281.5,899.0,282.1528,773.842,653.046,125.158,778.204,0.166535,1.68412,0.0,96.3371,7.80789,0.812209,671.396
281.3,1020.0,281.953,900.116,769.755,119.884,889.638,0.0489297,1.60727,0.0,83.5925,7.16091,0.763066,796.465
281.1,645.0,281.753,529.715,418.817,115.285,534.102,0.0134836,1.53562,0.0,72.9222,6.59043,0.718239,452.322
280.9,302.0,281.553,188.847,107.611,113.153,220.764,0.00347735,1.46872,0.0,63.9985,6.08496,0.677239,148.531
280.7,194.0,281.353,81.6974,-0.539769,112.303,111.763,0.00083775,1.40615,0.0,56.5249,5.63505,0.639643,47.5562
280.5,149.0,281.1528,37.1259,-32.1295,111.874,79.7446,0.000188261,1.34754,0.0,50.2437,5.2329,0.605085,22.3152
280.3,161.0,280.953,49.395,-46.4127,111.605,65.1923,3.94136e-05,1.29255,0.0,44.9378,4.87204,0.573247,13.5166
280.1,140.0,280.753,28.729,-55.3092,111.271,55.9618,7.67921e-06,1.2409,0.0,40.4287,4.54703,0.543852,9.20126
279.9,143.0,280.553,31.9078,-61.8568,111.092,49.2355,1.39118e-06,1.19231,0.0,36.5712,4.25331,0.516657,6.70203
279.7,166.0,280.353,55.1986,-66.8166,110.801,43.9848,2.34163e-07,1.14655,0.0,33.2485,3.98701,0.491448,5.1113
279.5,129.0,280.1528,18.405,-70.8795,110.595,39.7155,3.65955e-08,1.10339,0.0,30.3673,3.74482,0.468036,4.03199
279.3,153.0,279.953,42.6079,-74.2423,110.392,36.1498,5.30719e-09,1.06265,0.0,27.8525,3.52395,0.446256,3.26439
279.1,140.0,279.753,29.8014,-77.084,110.199,33.1146,7.13851e-10,1.02414,0.0,25.6443,3.32197,0.425958,2.69826
278.9,117.0,279.553,6.89427,-79.6117,110.106,30.494,8.9016e-11,0.987707,0.0,23.6941,3.1368,0.407012,2.2684
278.7,126.0,279.353,16.0,-81.794,110.0,28.206,1.02847e-11,0.953196,0.0,21.9627,2.96663,0.389301,1.93413
278.5,126.0,279.1528,16.0,-83.8099,110.0,26.1901,1.10232e-12,0.920475,0.0,20.4181,2.80989,0.372719,1.66895
278.3,139.0,278.953,29.0,-85.5994,110.0,24.4006,1.09463e-13,0.889423,0.0,19.0338,2.66521,0.357173,1.45499
278.1,144.0,278.753,34.0,-87.1981,110.0,22.8019,1.0926e-14,0.859927,0.0,17.7882,2.53138,0.342579,1.27982
277.9,114.0,278.553,4.0,-88.6344,110.0,21.3656,0.0,0.831883,0.0,16.6629,2.40735,0.328859,1.13456
277.7,126.0,278.353,16.0,-89.9311,110.0,20.0689,0.0,0.805198,0.0,15.6428,2.29219,0.315947,1.01276
277.5,115.0,278.1528,5.0,-91.1068,110.0,18.8932,0.0,0.779785,0.0,14.715,2.18508,0.30378,0.909621
277.3,137.0,277.953,27.0,-92.1769,110.0,17.8231,0.0,0.755563,0.0,13.8684,2.08528,0.292301,0.821501
277.1,117.0,277.753,7.0,-93.1545,110.0,16.8455,0.0,0.732459,0.0,13.0938,1.99215,0.28146,0.745617

File: MX-UT-0.5-1-O1s.csv
#No of rows lightened (2D detector)1(if not using 2D detector, value is 1 and can be ignored!)
raw_x,raw_y,corrected x,data-bg,sum_components,bg,sum_fit,bg_shirley_,C-O,TiO2,C-Ti-(OH)x
537.5,260.943,537.9255,260.942,68.9159,0.000542006,68.9164,0.000542006,0.002148,9.9809,58.9328
537.3,218.578,537.7255,218.577,73.2412,0.000541151,73.2418,0.000541151,0.00592457,10.4802,62.7551
537.1,108.169,537.526,108.168,77.9897,0.000540283,77.9903,0.000540283,0.0156969,11.0179,66.9562
536.9,29.3366,537.3255,29.336,83.2249,0.000539988,83.2254,0.000539988,0.0399489,11.5979,71.587
536.7,186.678,537.126,186.678,89.0299,0.000539713,89.0304,0.000539713,0.0976628,12.2251,76.7072
536.5,108.365,536.9255,108.365,95.5206,0.000538755,95.5211,0.000538755,0.229344,12.9044,82.3868
536.3,29.5548,536.7255,29.5543,102.868,0.000538432,102.869,0.000538432,0.517346,13.6419,88.7089
536.1,134.79,536.526,134.789,111.337,0.00053824,111.338,0.00053824,1.12101,14.4444,95.7718
535.9,205.534,536.3255,205.534,121.346,0.000537361,121.347,0.000537361,2.33329,15.3198,103.693
535.7,251.11,536.126,251.11,133.556,0.000536672,133.557,0.000536672,4.66513,16.2771,112.614
535.5,170.792,535.9255,170.792,148.991,0.000535718,148.992,0.000535718,8.95968,17.327,122.705
535.3,182.265,535.7255,182.265,169.183,0.000535126,169.184,0.000535126,16.5293,18.4816,134.172
535.1,230.203,535.526,230.202,196.318,0.000533978,196.318,0.000533978,29.2923,19.7554,147.27
534.9,229.195,535.3255,229.195,233.338,0.000532709,233.339,0.000532709,49.8636,21.1655,162.309
534.7,136.759,535.126,136.759,283.942,0.000531894,283.943,0.000531894,81.5359,22.7317,179.675
534.5,306.504,534.9255,306.504,352.394,0.000531116,352.395,0.000531116,128.07,24.4782,199.846
534.3,385.414,534.7255,385.414,443.091,0.000530034,443.092,0.000530034,193.233,26.4335,223.425
534.1,471.82,534.526,471.82,559.858,0.000528327,559.859,0.000528327,280.058,28.6323,251.168
533.9,740.806,534.3255,740.805,705.046,0.000526066,705.046,0.000526066,389.897,31.1166,284.032
533.7,900.312,534.126,900.311,878.588,0.000523027,878.588,0.000523027,521.417,33.938,323.233
533.5,945.232,533.9255,945.232,1077.28,0.000519343,1077.28,0.000519343,669.814,37.1601,370.307
533.3,1215.82,533.7255,1215.82,1294.58,0.000515037,1294.58,0.000515037,826.528,40.8624,427.192
533.1,1714.59,533.526,1714.59,1521.13,0.000509448,1521.13,0.000509448,979.705,45.1447,496.284
532.9,1743.89,533.3255,1743.88,1746.08,0.000502719,1746.09,0.000502719,1115.49,50.1346,580.458
532.7,1923.04,533.126,1923.04,1958.96,0.000495042,1958.96,0.000495042,1220.03,55.9962,682.931
532.5,2311.96,532.9255,2311.96,2151.51,0.000486593,2151.51,0.000486593,1281.77,62.9439,806.795
532.3,2320.16,532.7255,2320.16,2318.68,0.000477411,2318.68,0.000477411,1293.56,71.2619,953.867
532.1,2419.88,532.526,2419.88,2457.71,0.000467657,2457.71,0.000467657,1253.99,81.3335,1122.4
531.9,2517.39,532.3255,2517.39,2564.77,0.000458158,2564.77,0.000458158,1167.71,93.6846,1303.38
531.7,2470.64,532.126,2470.64,2630.19,0.000447568,2630.19,0.000447568,1044.5,109.052,1476.63
531.5,2617,531.9255,2617,2636.55,0.000437049,2636.55,0.000437049,897.469,128.494,1610.58
531.3,2631.19,531.7255,2631.19,2565.8,0.000426601,2565.8,0.000426601,740.735,153.568,1671.5
531.1,2435.4,531.526,2435.4,2415.05,0.000415906,2415.05,0.000415906,587.274,186.642,1641.13
530.9,2287.68,531.3255,2287.68,2207.52,0.000406456,2207.52,0.000406456,447.252,231.446,1528.82
530.7,1881.27,531.126,1881.27,1986.36,0.000397628,1986.36,0.000397628,327.189,294.1,1365.07
530.5,1860.24,530.9255,1860.24,1798.88,0.000389976,1798.88,0.000389976,229.921,385.132,1183.82
530.3,1721.02,530.7255,1721.02,1688.4,0.000382457,1688.4,0.000382457,155.2,523.68,1009.52
530.1,1885.66,530.526,1885.66,1701.87,0.000375419,1701.87,0.000375419,100.633,746.625,854.609
529.9,2177.29,530.3255,2177.29,1914.33,0.000367246,1914.33,0.000367246,62.6789,1128.78,722.871
529.7,2666.95,530.126,2666.95,2471.69,0.000357964,2471.69,0.000357964,37.5005,1820.81,613.378
529.5,3478.87,529.9255,3478.87,3582.04,0.000346119,3582.04,0.000346119,21.552,3037.19,523.299
529.3,4758.05,529.7255,4758.05,4885.15,0.000330595,4885.15,0.000330595,11.8979,4423.88,449.38
529.1,4649.3,529.526,4649.3,4568.73,0.000311,4568.73,0.000311,6.30942,4173.81,388.603
528.9,3192.41,529.3255,3192.41,3045.19,0.000292766,3045.19,0.000292766,3.21397,2703.58,338.404
528.7,1846.46,529.126,1846.46,1919.22,0.000281115,1919.22,0.000281115,1.57263,1620.95,296.694
528.5,1046.1,528.9255,1046.1,1282.22,0.000274362,1282.22,0.000274362,0.739176,1019.67,261.808
528.3,579.44,528.7255,579.439,917.109,0.000270901,917.109,0.000270901,0.333735,684.347,232.428
528.1,197.828,528.526,197.828,693.443,0.000268738,693.443,0.000268738,0.14474,485.783,207.515
527.9,256.584,528.3255,256.584,546.987,0.000267833,546.987,0.000267833,0.0602993,360.677,186.25
527.7,220.434,528.126,220.434,445.525,0.00026671,445.525,0.00026671,0.0241306,277.519,167.981
527.5,206.05,527.9255,206.05,371.939,0.000265908,371.939,0.000265908,0.00927596,219.738,152.192
527.3,370.925,527.7255,370.925,316.56,0.000264959,316.56,0.000264959,0.00342518,178.089,138.467
527.1,79.6127,527.526,79.6124,273.614,0.000263783,273.614,0.000263783,0.0012149,147.141,126.471
526.9,81.0,527.3255,80.9997,239.483,0.00026329,239.483,0.00026329,0.000413936,123.549,115.934
526.7,64.0,527.126,63.9997,211.802,0.000263124,211.802,0.000263124,0.000135475,105.169,106.632
526.5,268.0,526.9255,268,188.967,0.000262605,188.967,0.000262605,4.25913e-05,90.5816,98.3855
526.3,172.0,526.7255,172,169.858,0.000261639,169.859,0.000261639,1.28622e-05,78.8159,91.0425
526.1,238.0,526.526,238,153.67,0.000261228,153.67,0.000261228,3.73116e-06,69.1919,84.4783
525.9,148.0,526.3255,148,139.81,0.000260541,139.81,0.000260541,1.0397e-06,61.2217,78.5884
525.7,20.0,526.126,19.9997,127.833,0.000259869,127.833,0.000259869,2.78293e-07,54.5484,73.2848
525.5,251.0,525.9255,251,117.399,0.000259483,117.4,0.000259483,7.15539e-08,48.906,68.4933
525.3,355.0,525.7255,355,108.244,0.000258283,108.245,0.000258283,1.76725e-08,44.0934,64.151
525.1,129.0,525.526,129,100.16,0.000256906,100.16,0.000256906,4.19273e-09,39.9558,60.204
525.0,193.0,525.4255,193,96.4657,0.000256642,96.4659,0.000256642,2.01162e-09,38.1015,58.3642