Folder: python_code_MXene_VRFB/XPS/LG4X-result (part 2)

File: HT-C1s.csv
#No of rows lightened (2D detector)1(if not using 2D detector, value is 1 and can be ignored!)
raw_x,raw_y,corrected x,data-bg,sum_components,bg,sum_fit,C=C,pi-pi*,pi-pi*2,C-C,C-O,C=O,O-C=O
294.9,53.0753,295.571,22.6821,7.21043,30.3933,37.6037,18.5801,1.2733,6.42018,5.30351,5.67792,0.0320206,0.316642
294.6,73.5408,295.271,43.1499,25.9219,30.3909,56.3128,19.6284,2.90955,21.6885,5.63289,6.06861,0.0347991,0.350041
294.3,100.401,294.971,70.0329,65.3195,30.3678,95.6873,20.7681,6.26814,55.7289,5.99426,6.50094,0.0379588,0.389065
294.0,136.435,294.6708,106.097,111.217,30.338,141.555,22.0099,12.7313,92.9639,6.39196,6.98102,0.0415735,0.435065
293.7,178.762,294.371,148.466,128.473,30.2969,158.77,23.3666,24.3794,96.1411,6.83108,7.51613,0.0457358,0.489829
293.4,152.3,294.071,122.053,116.155,30.2478,146.403,24.8527,44.0142,61.4967,7.31767,8.11498,0.0505636,0.555765
293.1,173.009,293.771,142.817,113.818,30.192,144.01,26.4852,74.9172,25.2682,7.85893,8.78807,0.0562087,0.636181
292.8,223.829,293.471,193.697,144.822,30.132,174.954,28.2841,120.224,7.63575,8.46348,9.54815,0.0628698,0.735733
292.5,292.014,293.1708,261.956,205,30.0579,235.058,30.2727,181.893,2.4079,9.14179,10.4108,0.0708104,0.861159
292.2,312.52,292.871,282.549,285.495,29.9714,315.466,32.4787,259.455,1.12768,9.90661,11.3952,0.0803881,1.02254
291.9,433.809,292.571,403.954,379.339,29.8549,409.194,34.9349,348.921,0.71194,10.7736,12.5253,0.0920976,1.2356
291.6,552.674,292.271,522.958,478.093,29.7161,507.809,37.6807,442.395,0.506827,11.7623,13.8312,0.106642,1.52623
291.3,600.619,291.971,571.084,570.749,29.5358,600.285,40.7636,528.825,0.38259,12.8972,15.3509,0.125055,1.94041
291.0,744.437,291.6708,715.115,645.264,29.322,674.586,44.2409,595.982,0.300112,14.2096,17.1336,0.148914,2.57031
290.7,741.929,291.371,712.847,691.393,29.0821,720.475,48.1831,633.247,0.242171,15.7398,19.2428,0.180801,3.63943
290.4,826.451,291.071,797.61,703.727,28.841,732.569,52.6768,634.355,0.199763,17.5411,21.7626,0.225666,5.80771
290.1,714.802,290.771,686.196,684.38,28.6065,712.986,57.83,599.115,0.167723,19.6846,24.8055,0.297549,11.0858
289.8,685.713,290.471,657.324,644.663,28.3887,673.051,63.7784,533.466,0.142892,22.2682,28.5249,0.458196,24.4129
289.5,726.656,290.1708,698.486,603.223,28.1697,631.393,70.6945,447.839,0.123241,25.4297,33.1332,1.00609,53.1666
289.2,590.145,289.871,562.177,575.612,27.968,603.58,78.8002,354.451,0.107411,29.3689,38.9316,3.1547,98.7661
288.9,630.423,289.571,602.648,560.587,27.7743,588.361,88.3851,264.49,0.0944657,34.3833,46.3567,10.5996,144.052
288.6,574.594,289.271,547.01,545.662,27.5847,573.246,99.8324,186.072,0.0837407,40.925,56.0566,31.0574,159.219
288.3,579.666,288.971,552.268,534.37,27.3989,561.769,113.658,123.416,0.0747529,49.6872,69.0208,73.5784,132.333
288.0,627.726,288.6708,600.512,550.625,27.2134,577.838,130.571,77.1762,0.0671448,61.7199,86.7995,137.562,83.9426
287.7,660.241,288.371,633.231,604.425,27.0104,631.435,151.563,45.5001,0.0606465,78.5604,111.881,201.279,42.5912
287.4,698.311,288.071,671.525,676.182,26.7861,702.968,178.062,25.2906,0.0550514,102.321,148.3,229.797,19.1426
287.1,804.682,287.771,778.132,750.467,26.55,777.017,212.181,13.2534,0.050199,135.629,202.402,204.544,8.95778
286.8,860.983,287.471,834.705,848.47,26.2782,874.748,257.151,6.54804,0.045963,181.264,282.727,142.046,4.96548
286.5,1104.45,287.1708,1078.49,1011.62,25.9615,1037.58,318.122,3.05011,0.042243,241.379,394.565,77.1777,3.24856
286.2,1202.59,286.871,1177.01,1252.53,25.5804,1278.11,403.701,1.33949,0.0389582,316.303,521.312,33.0641,2.35008
285.9,1529.46,286.571,1504.33,1526.59,25.1326,1551.72,529.102,0.554602,0.0360431,403.223,605.583,11.4244,1.79937
285.6,1833.99,286.271,1809.4,1786.38,24.5827,1810.96,722.981,0.216492,0.0334441,495.312,587.571,3.41548,1.42892
285.3,2219.09,285.971,2195.16,2085.35,23.9335,2109.28,1043.53,0.079675,0.031117,581.984,481.421,1.07423,1.16513
285.0,2657.53,285.6708,2634.37,2606.67,23.1561,2629.82,1622.42,0.0276453,0.0290251,650.676,355.227,0.475961,0.969672
284.7,3650.82,285.371,3628.66,3746.48,22.1536,3768.63,2824.21,0.00904353,0.0271376,689.895,253.365,0.303997,0.820385
284.4,6856.4,285.071,6835.87,6992.85,20.5249,7013.37,6137.4,0.00278917,0.0254288,692.532,182.477,0.229238,0.703577
284.1,19379.7,284.771,19363.2,19331,16.5225,19347.6,18553.7,0.000811017,0.0238767,658.095,134.95,0.183233,0.610346
283.8,28179.5,284.471,28171.5,28032.8,7.93135,28040.8,27344.4,0.000222333,0.0224627,592.87,102.765,0.150697,0.534681
283.5,7689.55,284.1708,7687.46,7921.37,2.09083,7923.46,7334.51,5.74642e-05,0.0211709,507.929,80.3967,0.126412,0.472389
283.2,1700.19,283.871,1699.35,1543.91,0.837359,1544.75,1063.92,1.40026e-05,0.0199876,415.889,64.3918,0.107703,0.420468
282.9,715.804,283.571,715.336,577.599,0.468065,578.068,197.209,3.21692e-06,0.0189008,327.75,52.6198,0.0929433,0.37672
282.6,328.158,283.271,327.857,333.618,0.300915,333.919,38.8278,6.9677e-07,0.0179005,250.909,43.7437,0.0810746,0.339506
282.3,187.325,282.971,187.108,232.895,0.217731,233.113,7.11126,1.42285e-07,0.0169777,188.703,36.9033,0.0713758,0.307577
282.0,127.641,282.6708,127.474,174.025,0.167233,174.193,1.14282,2.73934e-08,0.0161244,141.161,31.5297,0.0633413,0.279973
281.7,114.596,282.371,114.466,133.896,0.130594,134.027,0.156191,4.97224e-09,0.015334,106.306,27.2368,0.0566063,0.255943
281.4,85.3515,282.071,85.2499,105.36,0.101622,105.461,0.0178134,8.50898e-10,0.0146004,81.387,23.7561,0.050902,0.234893
281.1,46.9435,281.771,46.8646,84.8221,0.0789085,84.901,0.00167429,1.37284e-10,0.0139182,63.7263,20.8967,0.0460264,0.216347
280.8,50.3693,281.471,50.3067,69.8443,0.0625743,69.9068,0.00012857,2.08826e-11,0.0132828,51.1313,18.5204,0.0418249,0.199922
280.5,22.6976,281.1708,22.6477,58.6991,0.0499791,58.7491,8.01564e-06,2.99479e-12,0.01269,41.988,16.5249,0.0381779,0.185306
280.2,19.9161,280.871,19.8745,50.1977,0.0416028,50.2393,4.03813e-07,4.04918e-13,0.0121361,35.1865,14.8334,0.0349912,0.172241
279.9,19.1535,280.571,19.121,43.5511,0.0324943,43.5836,1.63791e-08,5.16163e-14,0.0116176,29.9917,13.3876,0.0321899,0.160515
279.6,22.3643,280.271,22.3399,38.2327,0.0244025,38.2571,5.3338e-10,6.20333e-15,0.0111317,25.924,12.1423,0.029714,0.14995
279.3,13.54,279.971,13.5223,33.8915,0.0176613,33.9091,1.39141e-11,7.02882e-16,0.0106757,22.6683,11.0622,0.0275147,0.140397
279.0,20.7114,279.6708,20.7003,30.2899,0.0110823,30.301,2.90183e-13,7.50859e-17,0.0102472,20.0139,10.1196,0.025552,0.131732
278.7,10.8059,279.371,10.7984,27.258,0.00745408,27.2654,4.8508e-15,7.5623e-18,0.00984396,17.816,9.29199,0.0237931,0.123846
278.4,19.9054,279.071,19.9017,24.6783,0.00363463,24.6819,0.0,7.18071e-19,0.00946409,15.972,8.56159,0.0222105,0.11665
278.1,4.98015,278.771,4.97939,22.4607,0.00076235,22.4614,0.0,6.42836e-20,0.00910581,14.4077,7.91378,0.0207814,0.110064
277.8,15.0,278.471,15.0,20.5366,0.0,20.5366,0.0,5.42566e-21,0.00876751,13.0678,7.33659,0.0194864,0.104022
277.5,11.0,278.1708,11.0,18.8557,0.0,18.8557,0.0,4.31741e-22,0.00844772,11.9103,6.82015,0.0183092,0.0984649
277.2,16.0,277.871,16.0,17.3779,0.0,17.3779,0.0,3.23901e-23,0.00814513,10.9029,6.35625,0.0172359,0.0933423
277.0,6.0,277.6708,6.0,16.4894,0.0,16.4894,0.0,5.57605e-24,0.00795236,10.302,6.07272,0.0165721,0.0901465

File: HT-O1s.csv
#No of rows lightened (2D detector)1(if not using 2D detector, value is 1 and can be ignored!),,,,,,,,
raw_x,raw_y,corrected x,data-bg,sum_components,bg,sum_fit,bg_shirley_,C-O,C=O
539.9,8536,540.5708,-42.4647,45.2787,8578.46,8623.74,8578.46,45.2787,1.70552e-32
539.7,8373,540.3708,-203.805,47.7692,8576.81,8624.57,8576.81,47.7692,5.26978e-31
539.5,8537,540.1708,-38.6171,50.4712,8575.62,8626.09,8575.62,50.4712,1.51105e-29
539.3,8592,539.9708,18.1112,53.4095,8573.89,8627.3,8573.89,53.4095,4.0208e-28
539.1,8687,539.7708,115.153,56.6125,8571.85,8628.46,8571.85,56.6125,9.92884e-27
538.9,8558,539.5708,-11.7419,60.1129,8569.74,8629.85,8569.74,60.1129,2.27528e-25
538.7,8548,539.3708,-19.7622,63.9489,8567.76,8631.71,8567.76,63.9489,4.83861e-24
538.5,8644,539.1708,78.1289,68.1649,8565.87,8634.04,8565.87,68.1649,9.549e-23
538.3,8429,538.9708,-134.578,72.8127,8563.58,8636.39,8563.58,72.8127,1.74882e-21
538.1,8676,538.7708,114.47,77.9535,8561.53,8639.48,8561.53,77.9535,2.97223e-20
537.9,8678,538.5708,118.956,83.6599,8559.04,8642.7,8559.04,83.6599,4.68782e-19
537.7,8706,538.3708,149.404,90.0179,8556.6,8646.61,8556.6,90.0179,6.86134e-18
537.5,8699,538.1708,144.84,97.131,8554.16,8651.29,8554.16,97.131,9.31962e-17
537.3,8724,537.9708,172.428,105.124,8551.57,8656.7,8551.57,105.124,1.17473e-15
537.1,8773,537.7708,223.896,114.148,8549.1,8663.25,8549.1,114.148,1.37413e-14
536.9,8691,537.5708,144.685,124.389,8546.32,8670.7,8546.32,124.389,1.49165e-13
536.7,8600,537.3708,56.0342,136.077,8543.97,8680.04,8543.97,136.077,1.50265e-12
536.5,8719,537.1708,177.184,149.498,8541.82,8691.31,8541.82,149.498,1.40475e-11
536.3,8703,536.9708,163.686,165.013,8539.31,8704.33,8539.31,165.013,1.21868e-10
536.1,8852,536.7708,315.359,183.08,8536.64,8719.72,8536.64,183.08,9.81139e-10
535.9,8772,536.5708,238.382,204.293,8533.62,8737.91,8533.62,204.293,7.33031e-09
535.7,8744,536.3708,212.963,229.425,8531.04,8760.46,8531.04,229.425,5.08235e-08
535.5,8955,536.1708,427.017,259.497,8527.98,8787.48,8527.98,259.497,3.27007e-07
535.3,8882,535.9708,357.612,295.883,8524.39,8820.27,8524.39,295.883,1.95254e-06
535.1,8906,535.7708,384.99,340.445,8521.01,8861.46,8521.01,340.445,1.08192e-05
534.9,8950,535.5708,432.735,395.743,8517.27,8913.01,8517.27,395.743,5.56337e-05
534.7,8875,535.3708,361.228,465.312,8513.77,8979.08,8513.77,465.311,0.00026548
534.5,9154,535.1708,644.086,554.004,8509.91,9063.92,8509.91,554.002,0.00117565
534.3,9179,534.9708,673.497,668.342,8505.5,9173.85,8505.5,668.337,0.00483139
534.1,9291,534.7708,790.341,816.669,8500.66,9317.33,8500.66,816.651,0.0184254
533.9,9536,534.5708,1041.24,1008.7,8494.76,9503.46,8494.76,1008.63,0.0652099
533.7,9640,534.3708,1151.8,1253.86,8488.2,9742.06,8488.2,1253.65,0.214171
533.5,9973,534.1708,1492.1,1557.87,8480.9,10038.8,8480.9,1557.21,0.652764
533.3,10474,533.9708,2002.32,1917.56,8471.68,10389.2,8471.68,1915.72,1.84631
533.1,10770,533.7708,2309.94,2315.49,8460.06,10775.6,8460.06,2310.65,4.8462
532.9,11256,533.5708,2809.3,2717.26,8446.7,11164,8446.7,2705.45,11.8045
532.7,11513,533.3708,3081.78,3075.24,8431.22,11506.5,8431.22,3048.55,26.6838
532.5,11919,533.1708,3504.6,3340.2,8414.4,11754.6,8414.4,3284.22,55.9752
532.3,11754,532.9708,3357.73,3477.82,8396.27,11874.1,8396.27,3368.86,108.967
532.1,11742,532.7708,3363.04,3482.65,8378.96,11861.6,8378.96,3285.79,196.854
531.9,11684,532.5708,3322.68,3381.41,8361.32,11742.7,8361.32,3051.38,330.023
531.7,11603,532.3708,3258.74,3222.5,8344.26,11566.8,8344.26,2709.05,513.445
531.5,11496,532.1708,3168.65,3055.78,8327.35,11383.1,8327.35,2314.48,741.301
531.3,11366,531.9708,3054.97,2912.56,8311.03,11223.6,8311.03,1919.34,993.22
531.1,10923,531.7708,2626.87,2795.32,8296.13,11091.5,8296.13,1560.38,1234.94
530.9,10914,531.5708,2631.35,2681.2,8282.65,10963.9,8282.65,1256.25,1424.95
530.7,10862,531.3708,2592.38,2536.51,8269.62,10806.1,8269.62,1010.7,1525.81
530.5,10606,531.1708,2349.1,2334.44,8256.9,10591.3,8256.9,818.255,1516.19
530.3,10278,530.9708,2032.74,2067.73,8245.26,10313,8245.26,669.573,1398.16
530.1,9879,530.7708,1643.93,1751.45,8235.07,9986.51,8235.07,554.957,1196.49
529.9,9720,530.5708,1493.47,1416.25,8226.53,9642.78,8226.53,466.056,950.195
529.7,9401,530.3708,1181.41,1096.6,8219.59,9316.19,8219.59,396.331,700.272
529.5,8911,530.1708,696.747,819.845,8214.25,9034.1,8214.25,340.916,478.929
529.3,8811,529.9708,600.211,600.232,8210.79,8811.02,8210.79,296.265,303.967
529.1,8655,529.7708,446.733,438.844,8208.27,8647.11,8208.27,259.811,179.032
528.9,8378,529.5708,171.933,327.541,8206.07,8533.61,8206.07,229.685,97.856
528.7,8512,529.3708,306.978,254.148,8205.02,8459.17,8205.02,204.512,49.6356
528.5,8389,529.1708,185.509,206.63,8203.49,8410.12,8203.49,183.266,23.3641
528.3,8385,528.9708,182.503,175.378,8202.5,8377.87,8202.5,165.172,10.206
528.1,8264,528.7708,62.2769,153.772,8201.72,8355.5,8201.72,149.635,4.13727
527.9,8306,528.5708,104.945,137.753,8201.05,8338.81,8201.05,136.196,1.5564
527.7,8318,528.3708,117.251,125.037,8200.75,8325.79,8200.75,124.493,0.54335
527.5,8293,528.1708,93.0695,114.415,8199.93,8314.35,8199.93,114.239,0.17603
527.3,8287,527.9708,87.7032,105.257,8199.3,8304.55,8199.3,105.205,0.0529232
527.1,8289,527.7708,90.1668,97.2174,8198.83,8296.05,8198.83,97.2027,0.0147658
526.9,8377,527.5708,178.532,90.0856,8198.47,8288.55,8198.47,90.0818,0.0038231
526.7,8315,527.3708,117.274,83.718,8197.73,8281.44,8197.73,83.7171,0.000918597
526.5,8129,527.1708,-68.265,78.0052,8197.26,8275.27,8197.26,78.005,0.000204826
526.3,8268,526.9708,70.6217,72.8592,8197.38,8270.24,8197.38,72.8591,4.23834e-05
526.1,8309,526.7708,112.108,68.2069,8196.89,8265.1,8196.89,68.2069,8.13874e-06
525.9,8360,526.5708,163.699,63.9872,8196.3,8260.29,8196.3,63.9872,1.45034e-06
525.7,8190,526.3708,-5.91109,60.1478,8195.91,8256.06,8195.91,60.1478,2.39845e-07
525.5,8225,526.1708,29.0446,56.6443,8195.96,8252.6,8195.96,56.6443,3.68081e-08
525.3,8333,525.9708,137.222,53.4387,8195.78,8249.22,8195.78,53.4387,5.24211e-09
525.1,8322,525.7708,126.681,50.498,8195.32,8245.82,8195.32,50.498,6.92817e-10
525,8408,525.6708,212.995,49.118,8195,8244.12,8195,49.118,2.4491e-10

File: MX-HT-0.5-Ti2p.csv
#No of rows lightened (2D detector)1(if not using 2D detector, value is 1 and can be ignored!)
raw_x,raw_y,corrected x,data-bg,sum_components,bg,sum_fit,Ti-C,Ti 2+,Ti 3+,TiO2,Ti-C(1/2),Ti 2+(1/2),Ti 3+(1/2)
467.3,6895.0,467.944,5.0,-6822.52,6890.0,67.48,24.8277,2.80177e-138,9.43589e-41,39.568,6.21505e-18,7.00954e-05,3.08428
467.0,6934.0,467.6439,44.1757,-6812.79,6889.82,77.0362,26.0282,2.61869e-131,1.95413e-38,42.4492,3.54993e-16,0.000441407,8.55841
466.7,6953.0,467.3439,64.1489,-6794.44,6888.85,94.4137,27.3178,1.63078e-124,3.4988e-36,45.6556,1.69689e-14,0.0025086,21.4377
466.4,7073.0,467.044,187.249,-6759.32,6885.75,126.431,28.7058,6.7665e-118,5.41603e-34,49.2379,6.78808e-13,0.0128667,48.4744
466.1,7090.0,466.7439,207.649,-6699.89,6882.35,182.463,30.2022,1.87065e-111,7.24838e-32,53.2568,2.27248e-11,0.0595585,98.9447
465.8,7087.0,466.444,209.442,-6605.39,6877.56,272.168,31.8187,3.44572e-105,8.38682e-30,57.7859,6.36664e-10,0.248808,182.314
465.5,7286.0,466.1439,417.202,-6468.13,6868.8,400.667,33.5684,4.22888e-99,8.38977e-28,62.9149,1.49273e-08,0.938052,303.246
465.2,7498.0,465.8439,640.165,-6295.1,6857.83,562.733,35.4665,3.45804e-93,7.25604e-26,68.7539,2.92893e-07,3.19178,455.32
464.9,7592.0,465.544,752.044,-6100.04,6839.96,739.914,37.5302,1.88405e-87,5.42558e-24,75.4393,4.80947e-06,9.80124,617.144
464.6,7691.0,465.2439,869.812,-5916.01,6821.19,905.181,39.7792,6.83936e-82,3.50743e-22,83.1415,6.60913e-05,27.1627,755.097
464.3,7896.0,464.944,1098.33,-5761.42,6797.67,1036.25,42.2366,1.65423e-76,1.96033e-20,92.0759,0.000760065,67.937,834.001
464.0,7846.0,464.6439,1074.09,-5639.58,6771.91,1132.33,44.9287,2.66585e-71,9.47252e-19,102.517,0.00731502,153.35,831.529
463.7,7937.0,464.3439,1194.01,-5519.43,6742.99,1223.56,47.8865,2.86242e-66,3.9573e-17,114.821,0.0589168,312.394,748.403
463.4,8202.0,464.044,1490.06,-5348.55,6711.94,1363.38,51.1461,2.04782e-61,1.42932e-15,129.452,0.397118,574.334,608.052
463.1,8345.0,463.7439,1668.08,-5074,6676.92,1602.92,54.7499,9.76128e-57,4.46329e-14,147.026,2.23997,952.949,445.957
462.8,8570.0,463.444,1937.42,-4672.65,6632.58,1959.93,58.7481,3.10014e-52,1.20497e-12,168.377,10.5719,1426.98,295.252
462.5,9047.0,463.1439,2467.08,-4175.44,6579.92,2404.48,63.2005,6.56016e-48,2.81253e-11,194.647,41.7272,1928.45,176.457
462.2,9403.0,462.8439,2884.99,-3637.66,6518.01,2880.35,68.1783,9.24925e-44,5.67564e-10,227.434,137.514,2352.02,95.1994
461.9,9885.0,462.544,3441.8,-3088.3,6443.2,3354.9,73.7677,8.68875e-40,9.90211e-09,269.021,376.835,2588.91,46.3634
461.6,10180.0,462.244,3825.22,-2508.27,6354.78,3846.51,80.0728,5.43834e-36,1.49361e-07,322.747,851.514,2571.79,20.3828
461.3,10531.0,461.944,4274.63,-1897.15,6256.37,4359.22,87.2212,2.26796e-32,1.9478e-06,393.615,1564.62,2305.67,8.08909
461.0,11038.0,461.6439,4893.01,-1398.02,6144.99,4746.97,95.3701,6.30176e-29,2.19608e-05,489.327,2293.85,1865.52,2.8979
460.7,10619.0,461.3439,4587.77,-1315.53,6031.23,4715.7,104.715,1.16667e-25,0.000214066,622.038,2625.79,1362.22,0.937158
460.4,10215.0,461.044,4292.76,-1800.01,5922.24,4122.22,115.501,1.4391e-22,0.00180403,811.335,2297.4,897.713,0.273584
460.1,9216.0,460.744,3385.02,-2572.32,5830.98,3258.66,128.041,1.18276e-19,0.0131443,1088.88,1507.75,533.912,0.0720966
459.8,8555.0,460.444,2796.61,-3094.63,5758.39,2663.76,142.735,6.47676e-17,0.0827995,1503.44,730.909,286.579,0.0171509
459.5,8640.0,460.1439,2949.01,-3018.06,5690.99,2672.93,160.105,2.36308e-14,0.450936,2114.94,258.61,138.823,0.00368304
459.2,9168.0,459.8439,3552.51,-2376.85,5615.49,3238.64,180.84,5.74458e-12,2.12324,2928.81,66.1804,60.6908,0.000713957
458.9,9891.0,459.544,4370.97,-1578.94,5520.03,3941.09,205.865,9.30457e-10,8.64328,3690.47,12.1661,23.9456,0.000124935
458.6,10063.0,459.244,4650.1,-1310.71,5412.9,4102.19,236.441,1.00414e-07,30.4197,3825.21,1.59841,8.52653,1.97354e-05
458.3,9112.0,458.944,3801.49,-1743.83,5310.51,3566.68,274.316,7.2202e-06,92.5612,3196.91,0.149504,2.74007,2.8142e-06
458.0,8393.0,458.6439,3167.9,-2306.46,5225.1,2918.63,321.96,0.00034591,243.5,2352.37,0.00992579,0.79468,3.62251e-07
457.7,8066.0,458.3439,2913.71,-2544.01,5152.29,2608.28,382.92,0.0110417,553.817,1671.32,0.000466692,0.208002,4.20932e-08
457.4,8384.0,458.044,3306.12,-2324.97,5077.88,2752.92,462.393,0.234838,1089,1201.24,1.55122e-05,0.0491342,4.41531e-09
457.1,8984.0,457.744,3993.55,-1680.72,4990.45,3309.73,568.153,3.32782,1851.36,886.882,3.63985e-07,0.0104747,4.18079e-10
456.8,9879.0,457.444,4996.17,-744.059,4882.83,4138.77,712.168,31.4202,2721.12,674.064,6.02236e-09,0.00201533,3.57357e-11
456.5,11010.0,457.1439,6260.8,346.065,4749.2,5095.26,913.607,197.659,3457.81,526.189,7.01979e-11,0.000349938,2.75736e-12
456.2,12050.0,456.8439,7465.36,1668.1,4584.64,6252.74,1204.95,828.485,3798.84,420.469,5.76011e-13,5.48376e-05,1.92058e-13
455.9,13115.0,456.544,8723.32,3518.57,4391.68,7910.25,1645.46,2313.72,3608.26,342.811,3.32519e-15,7.75549e-06,1.20758e-14
455.6,14115.0,456.244,9946.53,5737.21,4168.47,9905.69,2353.04,4305.22,2963.07,284.354,1.34976e-17,9.8988e-07,6.8541e-16
455.3,15078.0,455.944,11159.5,7339.99,3918.51,11258.5,3577.91,5337.51,2103.69,239.386,3.85083e-20,1.14025e-07,3.51181e-17
455.0,15559.0,455.6439,11917.2,8045.78,3641.79,11687.6,5783.16,4409,1291.28,204.128,7.7254e-23,1.18538e-08,1.62427e-18
454.7,15149.0,455.3439,11790.1,8705.32,3358.87,12064.2,8776.3,2426.62,685.257,176.015,1.07846e-25,1.11214e-09,6.7816e-20
454.4,13801.0,455.044,10712.7,6903.85,3088.29,9992.14,8634.62,889.858,314.401,153.263,1.73872e-28,9.4168e-11,2.55596e-21
454.1,8969.0,454.744,6091.65,2188.4,2877.35,5065.75,4589.01,217.42,124.713,134.607,0.0,7.19599e-12,8.69607e-23
453.8,4538.0,454.444,1745.44,-766.739,2792.56,2025.82,1828.52,35.3945,42.7696,119.129,0.0,4.96273e-13,2.67079e-24
453.5,3429.0,454.1439,663.152,-1920.78,2765.85,845.067,722.394,3.83912,12.6811,106.153,0.0,3.08882e-14,7.40461e-26
453.2,3237.0,453.8439,484.657,-2356.97,2752.34,395.37,296.671,0.277451,3.25067,95.1705,0.0,1.73503e-15,1.85316e-27
452.9,3076.0,453.544,332.139,-2533.12,2743.86,210.737,124.206,0.0133598,0.720422,85.7968,0.0,8.79561e-17,4.18669e-29
452.6,3016.0,453.244,279.236,-2607.03,2736.76,129.73,51.8575,0.000428619,0.138038,77.7341,0.0,4.02408e-18,8.53838e-31
452.3,2938.0,452.944,206.162,-2639.82,2731.84,92.0134,21.2402,9.16226e-06,0.0228668,70.7504,0.0,1.66154e-19,1.57191e-32
452.0,2859.0,452.6439,131.374,-2654.52,2727.63,73.1009,8.43539,1.30494e-07,0.00327499,64.6623,0.0,6.19151e-21,2.61233e-34
451.7,2837.0,452.3439,112.115,-2662.34,2724.88,62.5451,3.22095,1.23834e-09,0.000405518,59.3238,0.0,2.08221e-22,3.91899e-36
451.4,2770.0,452.044,48.5855,-2665.62,2721.41,55.7923,1.17512,7.82974e-12,4.34118e-05,54.6172,0.0,6.31971e-24,5.30723e-38
451.1,2771.0,451.744,51.9797,-2668.17,2719.02,50.8547,0.407702,3.29848e-14,4.01793e-06,50.447,0.0,1.73106e-25,6.48797e-40
450.8,2807.0,451.444,90.3979,-2669.73,2716.6,46.869,0.13402,9.25844e-17,3.21509e-07,46.735,0.0,4.27926e-27,7.15974e-42
450.5,2741.0,451.1439,25.0,-2672.54,2716.0,43.4583,0.0416204,1.7315e-19,2.22423e-08,43.4167,0.0,9.54703e-29,7.13235e-44
450.2,2815.0,450.8439,99.0,-2675.55,2716.0,40.4507,0.0121825,2.15756e-22,1.33035e-09,40.4385,0.0,1.92225e-30,6.4138e-46
450.0,2796.0,450.6439,80.0,-2677.38,2716.0,38.6247,0.00519197,1.99384e-24,1.87661e-10,38.6195,0.0,1.34385e-31,2.62024e-47