Folder: python_code_MXene_VRFB/XPS/LG4X-result (part 13)

File: MX-UT-0.5-O1s.csv
#No of rows lightened (2D detector)1(if not using 2D detector, value is 1 and can be ignored!)
raw_x,raw_y,corrected x,data-bg,sum_components,bg,sum_fit,bg_shirley_,C-O,TiO2
540.0,223.0,540.6287,59.6997,6.89259e-06,163.3,163.3,163.3,6.89259e-06,2.51863e-180
539.8,150.0,540.429,-13.3003,1.74359e-05,163.3,163.3,163.3,1.74359e-05,1.33653e-173
539.6,244.0,540.2287,80.6997,4.31295e-05,163.3,163.3,163.3,4.31295e-05,5.30952e-167
539.4,313.0,540.0287,149.7,0.000104321,163.3,163.3,163.3,0.000104321,1.57904e-160
539.2,210.0,539.8287,46.6997,0.000246741,163.3,163.301,163.3,0.000246741,3.51552e-154
539.0,0.0,539.6287,-163.3,0.000570663,163.3,163.301,163.3,0.000570663,5.85932e-148
538.8,277.42,539.429,114.12,0.00129058,163.3,163.302,163.3,0.00129058,7.3108e-142
538.6,142.998,539.2287,-20.3023,0.00285405,163.3,163.303,163.3,0.00285405,6.8288e-136
538.4,123.405,539.0287,-39.8953,0.00617173,163.3,163.306,163.3,0.00617173,4.77511e-130
538.2,293.89,538.8287,130.59,0.0130503,163.3,163.313,163.3,0.0130503,2.49967e-124
538.0,123.592,538.6287,-39.7078,0.0269838,163.3,163.327,163.3,0.0269838,9.79589e-119
537.8,127.018,538.429,-36.2821,0.0545576,163.3,163.355,163.3,0.0545576,2.87386e-113
537.6,235.545,538.2287,72.2451,0.107864,163.3,163.408,163.3,0.107864,6.31171e-108
537.4,157.277,538.0287,-6.02321,0.208529,163.3,163.509,163.3,0.208529,1.03774e-102
537.2,205.917,537.8287,42.617,0.394208,163.3,163.694,163.3,0.394208,1.2773e-97
537.0,36.2841,537.6287,-127.016,0.728707,163.3,164.029,163.3,0.728707,1.17694e-92
536.8,105.444,537.429,-57.8559,1.3172,163.3,164.617,163.3,1.3172,8.11857e-88
536.6,282.053,537.2287,118.753,2.32818,163.3,165.628,163.3,2.32818,4.19241e-83
536.4,49.4916,537.0287,-113.809,4.02394,163.3,167.324,163.3,4.02394,1.62072e-78
536.2,64.6302,536.8287,-98.6701,6.80074,163.3,170.101,163.3,6.80074,4.69045e-74
536.0,295.134,536.6287,131.833,11.239,163.3,174.539,163.3,11.239,1.0162e-69
535.8,131.804,536.429,-31.4964,18.1623,163.3,181.463,163.3,18.1623,1.64819e-65
535.6,215.483,536.2287,52.1832,28.7001,163.3,192,163.3,28.7001,2.00122e-61
535.4,119.024,536.0287,-44.276,44.3469,163.3,207.647,163.3,44.3469,1.81904e-57
535.2,379.715,535.8287,216.415,67.0059,163.3,230.306,163.3,67.0059,1.2378e-53
535.0,390.699,535.6287,227.399,98.9992,163.3,262.3,163.3,98.9992,6.30551e-50
534.8,169.514,535.429,6.21387,143.027,163.3,306.328,163.3,143.027,2.40464e-46
534.6,244.064,535.2287,80.7635,202.058,163.3,365.358,163.3,202.058,6.865e-43
534.4,222.928,535.0287,59.6274,279.127,163.3,442.427,163.3,279.127,1.46721e-39
534.2,450.083,534.8287,286.782,377.048,163.3,540.349,163.3,377.048,2.34748e-36
534.0,634.705,534.6287,471.405,498.036,163.3,661.336,163.3,498.036,2.81173e-33
533.8,745.995,534.429,582.695,643.271,163.3,806.571,163.3,643.271,2.5212e-30
533.6,902.754,534.2287,739.454,812.448,163.3,975.749,163.3,812.448,1.69239e-27
533.4,1161.92,534.0287,998.618,1003.38,163.3,1166.68,163.3,1003.38,8.50459e-25
533.2,1519.01,533.8287,1355.71,1211.73,163.3,1375.03,163.3,1211.73,3.19939e-22
533.0,1578.23,533.6287,1414.93,1430.92,163.3,1594.22,163.3,1430.92,9.01036e-20
532.8,2012.89,533.429,1849.59,1652.32,163.3,1815.62,163.3,1652.32,1.89967e-17
532.6,2211.35,533.2287,2048.05,1865.7,163.3,2029,163.3,1865.7,2.99829e-15
532.4,2181.56,533.0287,2018.26,2059.96,163.3,2223.26,163.3,2059.96,3.54266e-13
532.2,2452.98,532.8287,2289.68,2224.04,163.3,2387.34,163.3,2224.04,3.13362e-11
532.0,2228.59,532.6287,2065.29,2348,163.3,2511.3,163.3,2348,2.07503e-09
531.8,2664.54,532.429,2501.24,2423.94,163.3,2587.24,163.3,2423.94,1.02864e-07
531.6,2676.76,532.2287,2513.46,2446.89,163.3,2610.19,163.3,2446.89,3.81734e-06
531.4,2496.09,532.0287,2332.79,2415.33,163.3,2578.63,163.3,2415.33,0.000106052
531.2,2602.37,531.8287,2439.07,2331.35,163.3,2494.65,163.3,2331.34,0.00220567
531.0,2189.1,531.6287,2025.8,2200.46,163.3,2363.76,163.3,2200.42,0.0343416
530.8,2032.14,531.429,1868.84,2031.24,163.3,2194.54,163.3,2030.84,0.400277
530.6,1863.26,531.2287,1699.96,1836.28,163.3,1999.58,163.3,1832.79,3.49271
530.4,1819.19,531.0287,1655.89,1640.22,163.3,1803.52,163.3,1617.41,22.8152
530.2,1722.77,530.8287,1559.47,1507.28,163.3,1670.58,163.3,1395.71,111.57
530.0,2113.86,530.6287,1950.56,1586.16,163.3,1749.46,163.3,1177.72,408.442
529.8,2364.92,530.429,2201.62,2091.12,163.3,2254.42,163.3,971.75,1119.37
529.6,3129.59,530.2287,2966.29,3080.6,163.3,3243.9,163.3,784.039,2296.56
529.4,4117.95,530.0287,3954.65,4145.88,163.3,4309.18,163.3,618.572,3527.31
529.2,4830.72,529.8287,4667.42,4532.94,163.3,4696.24,163.3,477.212,4055.72
529.0,4273.44,529.6287,4110.14,3851.04,163.3,4014.34,163.3,359.999,3491.04
528.8,2508.97,529.429,2345.67,2515.14,163.3,2678.44,163.3,265.559,2249.58
528.6,1458.1,529.2287,1294.8,1276.75,163.3,1440.05,163.3,191.553,1085.2
528.4,647.458,529.0287,484.158,527.01,163.3,690.31,163.3,135.11,391.9
528.2,479.287,528.8287,315.986,199.137,163.3,362.437,163.3,93.1865,105.951
528.0,245.183,528.6287,81.8825,84.291,163.3,247.591,163.3,62.8476,21.4434
527.8,293.024,528.429,129.723,44.696,163.3,207.996,163.3,41.447,3.24894
527.6,171.748,528.2287,8.44791,27.0965,163.3,190.397,163.3,26.728,0.368512
527.4,258.422,528.0287,95.1217,16.8856,163.3,180.186,163.3,16.8543,0.0312912
527.2,204.385,527.8287,41.0853,10.3945,163.3,173.695,163.3,10.3925,0.00198909
527.0,161.806,527.6287,-1.49443,6.26627,163.3,169.566,163.3,6.26617,9.46554e-05
526.8,0.0,527.429,-163.3,3.69447,163.3,166.995,163.3,3.69447,3.37208e-06
526.6,190.0,527.2287,26.6998,2.12996,163.3,165.43,163.3,2.12996,8.99312e-08
526.4,205.0,527.0287,41.6998,1.20077,163.3,164.501,163.3,1.20077,1.79549e-09
526.2,29.0,526.8287,-134.3,0.661936,163.3,163.962,163.3,0.661936,2.6836e-11
526.0,98.0,526.6287,-65.3002,0.356814,163.3,163.657,163.3,0.356814,3.0027e-13
525.8,181.0,526.429,17.6998,0.188078,163.3,163.488,163.3,0.188078,2.51517e-15
525.6,169.0,526.2287,5.69979,0.0969397,163.3,163.397,163.3,0.0969397,1.57718e-17
525.4,336.0,526.0287,172.7,0.0488579,163.3,163.349,163.3,0.0488579,7.40387e-20
525.2,319.0,525.8287,155.7,0.0240789,163.3,163.324,163.3,0.0240789,2.60193e-22
525.0,193.0,525.6287,29.6998,0.011604,163.3,163.312,163.3,0.011604,6.8453e-25

File: MX-UT-0.5-O1s_nobg.csv
#No of rows lightened (2D detector)1(if not using 2D detector, value is 1 and can be ignored!)
raw_x,raw_y,corrected x,data-bg,sum_components,bg,sum_fit,bg_shirley_,C_1,C_2,C_3
540.0,223.0,540.6539,66.8589,1.321,156.141,157.462,156.141,4.20814e-07,1.321,1.23969e-102
539.8,150.0,540.4539,-6.14111,1.3711,156.141,157.512,156.141,1.23327e-06,1.3711,1.08751e-98
539.6,244.0,540.2539,87.8589,1.42412,156.141,157.565,156.141,3.52032e-06,1.42411,8.01891e-95
539.4,313.0,540.0539,156.859,1.48027,156.141,157.621,156.141,9.78735e-06,1.48026,4.97004e-91
539.2,210.0,539.854,53.8589,1.53982,156.141,157.681,156.141,2.65036e-05,1.53979,2.5892e-87
539.0,0.0,539.6539,-156.141,1.60306,156.141,157.744,156.141,6.99043e-05,1.60299,1.13379e-83
538.8,277.42,539.4539,121.279,1.67035,156.141,157.811,156.141,0.000179581,1.67017,4.17313e-80
538.6,142.998,539.2539,-13.1432,1.74211,156.141,157.883,156.141,0.000449338,1.74166,1.29108e-76
538.4,123.405,539.0539,-32.7361,1.81894,156.141,157.96,156.141,0.00109508,1.81784,3.35742e-73
538.2,293.89,538.854,137.749,1.90173,156.141,158.043,156.141,0.0025994,1.89914,7.33872e-70
538.0,123.592,538.6539,-32.5486,1.99202,156.141,158.133,156.141,0.0060098,1.98601,1.34833e-66
537.8,127.018,538.4539,-29.1229,2.09252,156.141,158.234,156.141,0.0135333,2.07899,2.08226e-63
537.6,235.545,538.2539,79.4043,2.20834,156.141,158.349,156.141,0.029683,2.17866,2.70293e-60
537.4,157.277,538.0539,1.13597,2.34908,156.141,158.49,156.141,0.0634114,2.28567,2.94914e-57
537.2,205.917,537.854,49.7762,2.53272,156.141,158.674,156.141,0.131943,2.40077,2.7047e-54
537.0,36.2841,537.6539,-119.857,2.7922,156.141,158.933,156.141,0.2674,2.5248,2.08499e-51
536.8,105.444,537.4539,-50.6967,3.18653,156.141,159.328,156.141,0.52783,2.6587,1.35098e-48
536.6,282.053,537.2539,125.912,3.81836,156.141,159.959,156.141,1.01481,2.80354,7.35798e-46
536.4,49.4916,537.0539,-106.65,4.86092,156.141,161.002,156.141,1.90035,2.96057,3.36844e-43
536.2,64.6302,536.854,-91.511,6.59727,156.141,162.738,156.141,3.46609,3.13117,1.29617e-40
536.0,295.134,536.6539,138.992,9.47448,156.141,165.616,156.141,6.1575,3.31697,4.19232e-38
535.8,131.804,536.4539,-24.3372,14.1742,156.141,170.315,156.141,10.6543,3.51983,1.13975e-35
535.6,215.483,536.2539,59.3423,21.6978,156.141,177.839,156.141,17.9559,3.7419,2.60451e-33
535.4,119.024,536.0539,-37.1168,33.46,156.141,189.601,156.141,29.4743,3.9857,5.0027e-31
535.2,379.715,535.854,223.574,51.3778,156.141,207.519,156.141,47.1237,4.25414,8.07691e-29
535.0,390.699,535.6539,234.558,77.9331,156.141,234.074,156.141,73.3825,4.55067,1.09609e-26
534.8,169.514,535.4539,13.3731,116.181,156.141,272.323,156.141,111.302,4.87937,1.25029e-24
534.6,244.064,535.2539,87.9227,169.671,156.141,325.813,156.141,164.426,5.24506,1.19877e-22
534.4,222.928,535.0539,66.7866,242.244,156.141,398.385,156.141,236.591,5.65352,9.66105e-21
534.2,450.083,534.854,293.942,337.687,156.141,493.828,156.141,331.575,6.11169,6.54445e-19
534.0,634.705,534.6539,478.564,459.237,156.141,615.379,156.141,452.609,6.628,3.72636e-17
533.8,745.995,534.4539,589.854,608.973,156.141,765.114,156.141,601.76,7.21273,1.78343e-15
533.6,902.754,534.2539,746.613,787.135,156.141,943.276,156.141,779.256,7.87857,7.17449e-14
533.4,1161.92,534.0539,1005.78,991.51,156.141,1147.65,156.141,982.868,8.64125,2.42598e-12
533.2,1519.01,533.854,1362.87,1216.97,156.141,1373.11,156.141,1207.45,9.52058,6.89517e-11
533.0,1578.23,533.6539,1422.09,1455.31,156.141,1611.45,156.141,1444.77,10.5417,1.64727e-09
532.8,2012.89,533.4539,1856.75,1695.52,156.141,1851.66,156.141,1683.79,11.7368,3.30785e-08
532.6,2211.35,533.2539,2055.21,1924.47,156.141,2080.61,156.141,1911.32,13.1481,5.58327e-07
532.4,2181.56,533.0539,2025.42,2128.01,156.141,2284.15,156.141,2113.18,14.8312,7.92124e-06
532.2,2452.98,532.854,2296.84,2292.47,156.141,2448.61,156.141,2275.61,16.8609,9.44625e-05
532.0,2228.59,532.6539,2072.45,2406.15,156.141,2562.29,156.141,2386.81,19.34,0.000946864
531.8,2664.54,532.4539,2508.39,2460.76,156.141,2616.9,156.141,2438.34,22.4126,0.0079777
531.6,2676.76,532.2539,2520.62,2452.56,156.141,2608.7,156.141,2426.21,26.2856,0.0564975
531.4,2496.09,532.0539,2339.94,2382.97,156.141,2539.12,156.141,2351.37,31.2663,0.336312
531.2,2602.37,531.854,2446.23,2259.09,156.141,2415.23,156.141,2219.58,37.8259,1.68274
531.0,2189.1,531.6539,2032.96,2094.5,156.141,2250.64,156.141,2040.7,46.7203,7.07708
530.8,2032.14,531.4539,1876,1911.69,156.141,2067.83,156.141,1827.45,59.2273,25.018
530.6,1863.26,531.2539,1707.12,1745.93,156.141,1902.07,156.141,1593.93,77.662,74.3383
530.4,1819.19,531.0539,1663.05,1646.39,156.141,1802.53,156.141,1354.1,106.626,185.667
530.2,1722.77,530.854,1566.63,1666.8,156.141,1822.94,156.141,1120.44,156.577,389.779
530.0,2113.86,530.6539,1957.72,1847,156.141,2003.14,156.141,902.995,256.205,687.803
529.8,2364.92,530.4539,2208.78,2225.22,156.141,2381.36,156.141,708.826,496.225,1020.17
529.6,3129.59,530.2539,2973.45,2921.05,156.141,3077.19,156.141,541.941,1107.25,1271.86
529.4,4117.95,530.0539,3961.81,3992.02,156.141,4148.16,156.141,403.573,2255.63,1332.82
529.2,4830.72,529.854,4674.58,4704.64,156.141,4860.78,156.141,292.718,3237.94,1173.99
529.0,4273.44,529.6539,4117.3,3988.24,156.141,4144.38,156.141,206.793,2912.25,869.195
528.8,2508.97,529.4539,2352.83,2379.02,156.141,2535.16,156.141,142.291,1695.81,540.92
528.6,1458.1,529.2539,1301.96,1148.85,156.141,1304.99,156.141,95.3628,770.536,282.95
528.4,647.458,529.0539,491.318,548.149,156.141,704.289,156.141,62.2498,361.491,124.408
528.2,479.287,528.854,323.146,287.977,156.141,444.117,156.141,39.578,202.421,45.9781
528.0,245.183,528.6539,89.0421,169.48,156.141,325.621,156.141,24.5092,130.688,14.2828
527.8,293.024,528.4539,136.883,110.53,156.141,266.671,156.141,14.7829,92.018,3.72939
527.6,171.748,528.2539,15.6076,78.0381,156.141,234.179,156.141,8.6846,68.535,0.81851
527.4,258.422,528.0539,102.281,58.2387,156.141,214.379,156.141,4.96932,53.1184,0.150998
527.2,204.385,527.854,48.2449,45.2139,156.141,201.354,156.141,2.76951,42.421,0.0234143
527.0,161.806,527.6539,5.66522,36.1878,156.141,192.328,156.141,1.50337,34.6814,0.00305178
526.8,0.0,527.4539,-156.141,29.69,156.141,185.831,156.141,0.794851,28.8948,0.000334338
526.6,190.0,527.2539,33.8594,24.8613,156.141,181.002,156.141,0.409321,24.452,3.0788e-05
526.4,205.0,527.0539,48.8594,21.1702,156.141,177.311,156.141,0.205305,20.9649,2.38307e-06
526.2,29.0,526.854,-127.141,18.2771,156.141,174.418,156.141,0.100298,18.1768,1.55044e-07
526.0,98.0,526.6539,-58.1406,15.9596,156.141,172.1,156.141,0.047725,15.9119,8.47883e-09
525.8,181.0,526.4539,24.8594,14.0689,156.141,170.209,156.141,0.0221185,14.0467,3.89742e-10
525.6,169.0,526.2539,12.8594,12.5022,156.141,168.643,156.141,0.0099844,12.4922,1.50585e-11
525.4,336.0,526.0539,179.859,11.1871,156.141,167.328,156.141,0.00438982,11.1827,4.89042e-13
525.2,319.0,525.854,162.859,10.0712,156.141,166.212,156.141,0.00187988,10.0693,1.33498e-14
525.0,193.0,525.6539,36.8594,9.11543,156.141,165.256,156.141,0.000784097,9.11464,3.0631e-16

File: MX-UT-0.5-Ti2p.csv
#No of rows lightened (2D detector)1(if not using 2D detector, value is 1 and can be ignored!)
raw_x,raw_y,corrected x,data-bg,sum_components,bg,sum_fit,TiC,Ti 2+,Ti 3+,Ti 4+,TiC (2p1/2),Ti 2+ (2p1/2)
467.5,15775.0,467.9195,456.0,-15246.5,15319.0,72.5032,2.56834e-177,5.77541e-89,9.86492e-130,72.4973,9.45279e-31,0.0059297
467.3,15498.0,467.7195,179.0,-15243.4,15319.0,75.5614,9.61973e-172,7.20684e-86,8.23304e-125,75.547,7.82963e-29,0.0143897
467.1,15670.0,467.52,351.0,-15240.2,15319.0,78.825,2.94599e-166,7.96285e-83,5.54482e-120,78.7911,5.69367e-27,0.033874
466.9,15565.0,467.3195,246.0,-15236.7,15319.0,82.3237,7.37667e-161,7.7903e-80,3.01354e-115,82.2463,3.63498e-25,0.0773523
466.7,15466.0,467.12,147.0,-15232.9,15319.0,86.1024,1.51027e-155,6.74843e-77,1.32168e-110,85.9311,2.03734e-23,0.171346
466.5,15514.0,466.9195,195.0,-15228.8,15319.0,90.234,2.52821e-150,5.17622e-74,4.67778e-106,89.8659,1.00245e-21,0.368185
466.3,15371.0,466.7195,52.0,-15224.2,15319.0,94.841,3.46051e-145,3.51549e-71,1.33602e-101,94.0735,4.33009e-20,0.767454
466.1,15476.0,466.52,157.0,-15218.9,15319.0,100.131,3.87294e-140,2.11408e-68,3.07927e-97,98.5796,1.64191e-18,1.55178
465.9,15389.0,466.3195,70.0,-15212.5,15319.0,106.456,3.54419e-135,1.12569e-65,5.72723e-93,103.412,5.46531e-17,3.04372
465.7,15575.0,466.12,256.0,-15204.6,15319.0,114.395,2.65199e-130,5.30734e-63,8.59611e-89,108.604,1.59691e-15,5.79122
465.5,15541.0,465.9195,222.0,-15194.1,15319.0,124.879,1.6226e-125,2.21564e-60,1.04117e-84,114.19,4.09579e-14,10.6888
465.3,15556.0,465.7195,237.902,-15178.8,15318.1,139.348,8.11771e-121,8.18997e-58,1.01766e-80,120.21,9.22096e-13,19.1373
465.1,15460.0,465.52,144.078,-15156,15315.9,159.948,3.32083e-116,2.68058e-55,8.02682e-77,126.711,1.82216e-11,33.2374
464.9,15413.0,465.3195,100.025,-15123.2,15313,189.74,1.11085e-111,7.76849e-53,5.10913e-73,133.743,3.1605e-10,55.997
464.7,15645.0,465.12,334.795,-15077.3,15310.2,232.881,3.0385e-107,1.99346e-50,2.62429e-69,141.365,4.81146e-09,91.516
464.5,15836.0,464.9195,532.193,-15009.1,15303.8,294.728,6.79621e-103,4.52939e-48,1.08777e-65,149.643,6.42894e-08,145.085
464.3,15527.0,464.7195,227.62,-14917.6,15299.4,381.773,1.24303e-98,9.11244e-46,3.63852e-62,158.653,7.53933e-07,223.121
464.1,15977.0,464.52,685.971,-14789.7,15291,501.332,1.85912e-94,1.62327e-43,9.82141e-59,168.48,7.75973e-06,332.852
463.9,16029.0,464.3195,748.786,-14619.3,15280.2,660.902,2.27378e-90,2.56042e-41,2.13936e-55,179.225,7.00926e-05,481.677
463.7,16293.0,464.12,1025.26,-14400.6,15267.7,867.168,2.27412e-86,3.57596e-39,3.76059e-52,191.002,0.000555647,676.166
463.5,16472.0,463.9195,1220.88,-14126.4,15251.1,1124.7,1.85996e-82,4.42218e-37,5.33444e-49,203.942,0.0038656,920.756
463.3,16601.0,463.7195,1370.1,-13796.4,15230.9,1434.49,1.24402e-78,4.8422e-35,6.10638e-46,218.198,0.0236003,1216.27
463.1,16714.0,463.52,1505.25,-13416.2,15208.7,1792.57,6.80443e-75,4.69473e-33,5.64078e-43,233.949,0.126442,1558.5
462.9,17363.0,463.3195,2182.32,-12991.5,15180.7,2189.2,3.04369e-71,4.03034e-31,4.20491e-40,251.4,0.594464,1937.21
462.7,17588.0,463.12,2442.53,-12536.4,15145.5,2609.07,1.11343e-67,3.06361e-29,2.52951e-37,270.796,2.45253,2335.82
462.5,18049.0,462.9195,2945.84,-12069.8,15103.2,3033.4,3.33105e-64,2.062e-27,1.22794e-34,292.42,8.87869,2732.1
462.3,18657.0,462.7195,3603.92,-11608.4,15053.1,3444.71,8.15018e-61,1.22887e-25,4.81036e-32,316.608,28.2045,3099.9
462.1,18916.0,462.519,3918,-11163.8,14998,3834.23,1.6309e-57,6.48464e-24,1.52069e-29,343.756,78.6167,3411.85
461.9,19234.0,462.32,4298,-10726.7,14936,4209.34,2.66913e-54,3.02989e-22,3.8794e-27,374.331,192.278,3642.73
461.7,19295.0,462.12,4426.2,-10274.5,14868.8,4594.25,3.57276e-51,1.25352e-20,7.98638e-25,408.891,412.622,3772.74
461.5,19888.0,461.9195,5091.96,-9780.67,14796,5015.37,3.91145e-48,4.59195e-19,1.32678e-22,448.094,776.922,3790.35
461.3,20153.0,461.7195,5437.19,-9245.61,14715.8,5470.21,3.50253e-45,1.48945e-17,1.77871e-20,492.724,1283.5,3693.99
461.1,20497.0,461.519,5866.27,-8734.41,14630.7,5896.31,2.56534e-42,4.27776e-16,1.92431e-18,543.711,1860.36,3492.24
460.9,20789.0,461.32,6250.47,-8367.97,14538.5,6170.57,1.53688e-39,1.08785e-14,1.67999e-16,602.15,2365.78,3202.63
460.7,20471.0,461.12,6026.13,-8286.97,14444.9,6157.9,7.53139e-37,2.44953e-13,1.18359e-14,669.325,2639.51,2849.07
460.5,20062.0,460.9195,5706.51,-8566.51,14355.5,5788.98,3.01901e-34,4.88383e-12,6.72905e-13,746.719,2583.64,2458.62
460.3,19451.0,460.7195,5180.23,-9157.96,14270.8,5112.82,9.89969e-32,8.62185e-11,3.08723e-11,836.006,2218.68,2058.13
460.1,18407.0,460.519,4207.85,-9917.38,14199.1,4281.77,2.65557e-29,1.34773e-09,1.143e-09,939.003,1671.49,1671.28
459.9,17731.0,460.32,3590.49,-10661.7,14140.5,3478.76,5.82759e-27,1.86537e-08,3.41495e-08,1057.56,1104.72,1316.49
459.7,16738.0,460.12,2644.78,-11253.5,14093.2,2839.77,1.04624e-24,2.28608e-07,8.2335e-07,1193.29,640.52,1005.96
459.5,16505.0,459.9195,2449.72,-11636.6,14055.3,2418.64,1.53672e-22,2.48073e-06,1.60194e-05,1347.2,325.791,745.647
459.3,16305.0,459.7195,2285.64,-11818.9,14019.4,2200.42,1.84673e-20,2.38358e-05,0.000251518,1518.91,145.367,536.144
459.1,16169.0,459.519,2182.97,-11849.5,13986,2136.54,1.81582e-18,0.000202789,0.00318678,1705.68,56.8989,373.958
458.9,16041.0,459.32,2088.11,-11779.2,13952.9,2173.7,1.46091e-16,0.00152763,0.0325835,1901.1,19.5366,253.021
458.7,16257.0,459.12,2336.9,-11653.9,13920.1,2266.18,9.61772e-15,0.0101896,0.268847,2093.95,5.88429,166.067
458.5,16193.0,458.9195,2306.42,-11509.6,13886.6,2377,5.18136e-13,0.0601804,1.79008,2267.86,1.55465,105.732
458.3,16139.0,458.7195,2288.68,-11371.7,13850.3,2478.6,2.28434e-11,0.314714,9.61839,2403,0.360298,65.3009
458.1,16365.0,458.519,2551.6,-11250.7,13813.4,2562.7,8.24228e-10,1.45727,41.7055,2480.34,0.0732441,39.1225
457.9,16465.0,458.32,2692.56,-11110.3,13772.4,2662.11,2.43405e-08,5.97484,145.93,2487.46,0.0130605,22.7367
457.7,16615.0,458.12,2885.09,-10860.2,13729.9,2869.71,5.88351e-07,21.6908,412.059,2423.14,0.00204278,12.818
457.5,17063.0,457.9195,3381.89,-10367.5,13681.1,3313.56,1.16412e-05,69.7245,938.933,2297.9,0.000280251,7.00982
457.3,17873.0,457.7195,4247.61,-9566.76,13625.4,4058.63,0.000188557,198.453,1726.52,2129.94,3.37238e-05,3.71866
457.1,18433.0,457.519,4875.82,-8553.82,13557.2,5003.35,0.00250039,500.142,2561.94,1939.35,3.55944e-06,1.91364
456.9,19283.0,457.32,5807.61,-7547.14,13475.4,5928.24,0.0271474,1116.07,3067.81,1743.38,3.29518e-07,0.955271
456.7,20163.0,457.12,6781.74,-6656.58,13381.3,6724.69,0.241347,2205.21,2964.49,1554.29,2.67561e-08,0.462579
456.5,20878.0,456.9195,7607.39,-5719.52,13270.6,7551.09,1.75707,3858.08,2311.7,1379.33,1.90551e-09,0.217289
456.3,21968.0,456.7195,8822.88,-4481.35,13145.1,8663.76,10.4765,5976.62,1454.71,1221.86,1.19024e-10,0.0990112
456.1,22802.0,456.519,9798.67,-2932.88,13003.3,10070.4,51.164,8197.88,738.721,1082.63,6.52073e-12,0.0437647
455.9,23901.0,456.32,11054.3,-1421.87,12846.7,11424.8,204.685,9956.58,302.724,960.844,3.13318e-13,0.0187653
455.7,24770.0,456.12,12098.7,-338.079,12671.3,12333.2,670.862,10707.3,100.109,854.956,1.32039e-14,0.00780515
455.5,25397.0,455.9195,12917.5,307.561,12479.5,12787.1,1801.61,10195.6,26.7155,763.141,4.88021e-16,0.0031492
455.3,26196.0,455.7195,13920.5,974.867,12275.5,13250.4,3964.84,8596.24,5.75327,683.565,1.58196e-17,0.00123257
455.1,26706.0,455.519,14645.8,2124.28,12060.2,14184.4,7151.43,6417.5,0.999831,614.52,4.49743e-19,0.000467969
454.9,26918.0,455.32,15083.3,3535.7,11834.7,15370.4,10573.7,4242.14,0.140217,554.484,1.12136e-20,0.000172352
454.7,26416.0,455.12,14808.8,4195.08,11607.2,15802.3,12817.2,2482.94,0.0158685,502.136,2.45208e-22,6.15753e-05
454.5,25831.0,454.9195,14444.9,3097.1,11386.1,14483.2,12740,1286.8,0.00144921,456.344,4.70248e-24,2.13398e-05
454.3,23890.0,454.7195,12709.8,212.047,11180.2,11392.3,10385.6,590.496,0.000106804,416.148,7.90897e-26,7.17413e-06
454.1,19243.0,454.519,8223.37,-3454.18,11019.6,7565.45,6944.78,239.93,6.35196e-06,380.739,1.16657e-27,2.33959e-06
453.9,14368.0,454.32,3433.34,-6688.84,10934.7,4245.83,3810.07,86.3209,3.04851e-07,349.433,1.50902e-29,7.40124e-07
453.7,12433.0,454.12,1534.62,-8833.92,10898.4,2064.47,1715.31,27.4985,1.18067e-08,321.656,1.71188e-31,2.27123e-07
453.5,11717.0,453.9195,835.906,-9942.57,10881.1,938.52,633.839,7.75646,3.69006e-10,296.924,1.70309e-33,6.76102e-08
453.3,11641.0,453.7195,771.111,-10400.8,10869.9,469.045,192.28,1.93723,9.30675e-12,274.828,1.48589e-35,1.95234e-08
453.1,11454.0,453.519,593.674,-10557,10860.3,303.347,47.8963,0.428411,1.89419e-13,255.022,1.1369e-37,5.46881e-09
452.9,11405.0,453.32,552.663,-10605.2,10852.3,247.094,9.79902,0.0838884,3.11108e-15,237.211,7.62842e-40,1.48601e-09
452.7,11101.0,453.12,254.032,-10624.2,10847,222.808,1.64693,0.0145447,4.12345e-17,221.146,4.48875e-42,3.91694e-10
452.5,11071.0,452.9195,228.043,-10636.1,10843,206.843,0.227448,0.00223292,4.41033e-19,206.613,2.31628e-44,1.00153e-10
452.3,10885.0,452.7195,44.8272,-10646.7,10840.2,193.455,0.0258168,0.000303529,3.80664e-21,193.429,1.04817e-46,2.48412e-11
452.1,10949.0,452.519,110.634,-10656.9,10838.4,181.439,0.00240901,3.65335e-05,2.6514e-23,181.437,4.15948e-49,5.9769e-12
451.9,11053.0,452.32,216.475,-10666,10836.5,170.5,0.000184839,3.89353e-06,1.49029e-25,170.5,1.44749e-51,1.39499e-12
451.7,11021.0,452.12,188.157,-10672.3,10832.8,160.502,1.16644e-05,3.67417e-07,6.75967e-28,160.502,4.41732e-54,3.15836e-13
451.5,10903.0,451.9195,72.4372,-10679.2,10830.6,151.34,6.05543e-07,3.06999e-08,2.47425e-30,151.34,1.18213e-56,6.93656e-14
451.3,10836.0,451.7195,5.86118,-10687.2,10830.1,142.926,2.58663e-08,2.27131e-09,7.30839e-33,142.926,2.77416e-59,1.47781e-14
451.1,10955.0,451.519,126.076,-10693.7,10828.9,135.181,9.09332e-10,1.48791e-10,1.74205e-35,135.181,5.70897e-62,3.05414e-15
450.9,10910.0,451.32,82.3263,-10699.6,10827.7,128.039,2.63144e-11,8.63061e-12,3.35091e-38,128.039,1.03025e-64,6.12281e-16
450.7,10895.0,451.12,68.0075,-10705.6,10827,121.439,6.26947e-13,4.43269e-13,5.20147e-41,121.439,1.63035e-67,1.19071e-16
450.5,10977.0,450.9195,152.0,-10709.7,10825.0,115.328,1.23001e-14,2.01584e-14,6.51554e-44,115.328,2.26241e-70,2.24623e-17
450.3,10851.0,450.7195,26.0,-10715.3,10825.0,109.661,1.98747e-16,8.11721e-16,6.58622e-47,109.661,2.75306e-73,4.11051e-18