Folder: python_code_MXene_VRFB/XPS/LG4X-result (part 10)

File: MX-UT-0.5-2-C1s.csv
#No of rows lightened (2D detector)1(if not using 2D detector, value is 1 and can be ignored!)
raw_x,raw_y,corrected x,data-bg,sum_components,bg,sum_fit,bg_shirley_,C=C,pi-pi*,pi-pi*2,C-C,C-O,C_6,TiC
294.7,745.0,295.353,155.602,155.277,589.398,744.675,589.398,9.33077,43.9169,78.8701,17.4034,5.6243,0.0,0.131585
294.5,747.0,295.1528,160.654,177.328,586.346,763.674,586.346,9.68467,48.5533,94.9597,18.0959,5.89869,0.0,0.135617
294.3,787.0,294.953,203.791,200.175,583.209,783.384,583.209,10.0591,53.9734,110.979,18.8305,6.19356,0.0,0.139839
294.1,845.0,294.753,265.071,220.244,579.929,800.173,579.929,10.4557,60.3514,123.171,19.6105,6.51096,0.0,0.14426
293.9,828.0,294.553,251.458,233.532,576.542,810.074,576.542,10.8762,67.9022,127.312,20.4398,6.85326,0.0,0.148894
293.7,783.0,294.353,209.87,238.583,573.13,811.714,573.13,11.3226,76.8861,121.675,21.3227,7.22311,0.0,0.153756
293.5,782.0,294.1528,212.122,238.028,569.878,807.906,569.878,11.797,87.6124,108.573,22.2637,7.62352,0.0,0.158859
293.3,805.0,293.953,238.354,236.562,566.646,803.208,566.646,12.302,100.436,92.3331,23.2682,8.05793,0.0,0.164221
293.1,803.0,293.753,239.712,238.094,563.288,801.381,563.288,12.84,115.75,76.461,24.342,8.53028,0.0,0.169859
292.9,823.0,293.553,263.031,244.764,559.969,804.732,559.969,13.4142,133.961,62.6759,25.4914,9.04507,0.0,0.175793
292.7,817.0,293.353,260.346,257.383,556.654,814.037,556.654,14.0278,155.454,51.3876,26.7238,9.6075,0.0,0.182043
292.5,829.0,293.1528,275.762,276.071,553.238,829.309,553.238,14.6844,180.542,42.3851,28.0473,10.2236,0.0,0.188632
292.3,881.0,292.953,331.237,300.617,549.763,850.38,549.763,15.3884,209.394,35.2675,29.4711,10.9003,0.0,0.195586
292.1,859.0,292.753,312.942,330.596,546.058,876.654,546.058,16.1441,241.963,29.6344,31.0055,11.6458,0.0,0.202931
291.9,940.0,292.553,397.621,365.35,542.379,907.73,542.379,16.957,277.902,25.1492,32.6621,12.4695,0.0,0.210698
291.7,918.0,292.353,379.447,403.935,538.553,942.488,538.553,17.8329,316.499,21.5475,34.4542,13.3828,0.0,0.21892
291.5,931.0,292.1528,396.324,445.072,534.676,979.748,534.676,18.7785,356.642,18.6276,36.3969,14.399,0.0,0.227633
291.3,1036.0,291.953,505.303,487.148,530.697,1017.84,530.697,19.8013,396.832,16.2373,38.5075,15.5337,0.0,0.236877
291.1,1082.0,291.753,555.667,528.274,526.333,1054.61,526.333,20.9102,435.244,14.2617,40.8056,16.8059,0.0,0.246695
290.9,1146.0,291.553,624.128,566.403,521.872,1088.28,521.872,22.1148,469.865,12.6139,43.3141,18.2384,0.0,0.257137
290.7,1111.0,291.353,593.684,599.507,517.316,1116.82,517.316,23.4268,498.667,11.2277,46.0591,19.8587,0.0,0.268257
290.5,1132.0,291.1528,619.308,625.783,512.692,1138.48,512.692,24.8591,519.82,10.0522,49.071,21.7004,0.0,0.280114
290.3,1121.0,290.953,613.033,643.863,507.967,1151.83,507.967,26.427,531.905,9.04769,52.3853,23.8049,0.0,0.292774
290.1,1172.0,290.753,668.727,652.985,503.273,1156.26,503.273,28.1481,534.08,8.18344,56.0432,26.2233,0.0,0.306313
289.9,1103.0,290.553,604.527,653.104,498.473,1151.58,498.473,30.0432,526.192,7.43502,60.0936,29.0193,0.0,0.320814
289.7,1103.0,290.353,609.118,644.917,493.882,1138.8,493.882,32.1364,508.795,6.78298,64.5938,32.2732,0.0,0.336369
289.5,1070.0,290.1528,580.674,629.797,489.326,1119.12,489.326,34.4565,483.077,6.21176,69.612,36.0868,0.0,0.353085
289.3,1040.0,289.953,555.013,609.654,484.987,1094.64,484.987,37.0375,450.716,5.70872,75.2296,40.5906,0.0,0.371078
289.1,1053.0,289.753,572.29,586.753,480.71,1067.46,480.71,39.92,413.682,5.26359,81.5445,45.9529,0.0,0.390483
288.9,1086.0,289.553,609.635,563.519,476.365,1039.88,476.365,43.153,374.018,4.86793,88.6747,52.3932,0.0,0.411451
288.7,980.0,289.353,508.038,542.359,471.962,1014.32,471.962,46.7957,333.65,4.51474,96.764,60.2,0.0,0.434156
288.5,1017.0,289.1528,549.119,525.549,467.881,993.43,467.881,50.9206,294.228,4.19824,105.989,69.7544,0.0,0.458793
288.3,1018.0,288.953,554.317,515.18,463.683,978.863,463.683,55.6167,257.037,3.91356,116.566,81.5622,0.0,0.48559
288.1,1016.0,288.753,556.454,513.18,459.546,972.727,459.546,60.9947,222.956,3.65662,128.765,96.2928,0.0,0.514805
287.9,1046.0,288.553,590.646,521.396,455.354,976.749,455.354,67.1937,192.484,3.42395,142.927,114.82,0.0,0.54674
287.7,1060.0,288.353,608.965,541.699,451.035,992.735,451.035,74.3901,165.787,3.21263,159.479,138.248,0.0,0.581743
287.5,1121.0,288.1528,674.399,576.06,446.601,1022.66,446.601,82.8102,142.78,3.02013,178.969,167.86,0.0,0.620219
287.3,1087.0,287.953,644.895,626.429,442.105,1068.53,442.105,92.7489,123.203,2.84431,202.101,204.87,0.0,0.662645
287.1,1110.0,287.753,672.424,694.171,437.576,1131.75,437.576,104.596,106.693,2.6833,229.79,249.7,0.0,0.709581
286.9,1159.0,287.553,726.151,778.704,432.849,1211.55,432.849,118.874,92.8474,2.5355,263.233,300.452,0.0,0.761688
286.7,1241.0,287.353,813.037,875.467,427.963,1303.43,427.963,136.299,81.2651,2.3995,304.013,350.671,0.0,0.819757
286.5,1293.0,287.1528,870.242,975.194,422.758,1397.95,422.758,157.871,71.5727,2.2741,354.224,388.367,0.0,0.884734
286.3,1497.0,286.953,1079.81,1068.55,417.189,1485.74,417.189,185.02,63.4404,2.15823,416.644,400.33,0.0,0.957759
286.1,1597.0,286.753,1186,1156,410.997,1567,410.997,219.84,56.587,2.05094,494.925,381.556,0.0,1.04022
285.9,1667.0,286.553,1262.66,1252.82,404.337,1657.16,404.337,265.484,50.7786,1.95142,593.753,339.72,0.0,1.13382
285.7,1773.0,286.353,1375.74,1383.06,397.259,1780.32,397.259,326.846,45.8242,1.85894,718.793,288.499,0.0,1.24066
285.5,1907.0,286.1528,1517.46,1571.25,389.544,1960.79,389.544,411.807,41.5696,1.77285,875.995,238.739,0.0,1.36336
285.3,2190.0,285.953,1808.73,1839.74,381.273,2221.02,381.273,533.729,37.8912,1.69258,1069.27,195.658,0.0,1.50522
285.1,2492.0,285.753,2120.08,2210.49,371.915,2582.41,371.915,717.076,34.6897,1.61762,1295,160.433,0.0,1.67047
284.9,2917.0,285.553,2555.78,2712.61,361.224,3073.83,361.224,1012.37,31.8859,1.54751,1532.57,132.36,0.0,1.86454
284.7,3788.0,285.353,3439.75,3425.56,348.25,3773.81,348.25,1546.62,29.416,1.48185,1735.78,110.169,0.0,2.09457
284.5,5145.0,285.1528,4813.4,4711.97,331.598,5043.57,331.598,2746.82,27.2281,1.42026,1841.53,92.6039,0.0,2.37004
284.3,8704.0,284.953,8396.48,8080.6,307.518,8388.12,307.518,6165.13,25.2804,1.36242,1807.51,78.6149,0.0,2.70377
284.1,15457.0,284.753,15191.6,15619.4,265.445,15884.9,265.445,13876,23.5384,1.30803,1648.08,67.378,0.0,3.11349
283.9,21076.0,284.553,20881.7,20654.8,194.251,20849.1,194.251,19148.4,21.9737,1.25682,1421.26,58.2652,0.0,3.62421
283.7,14300.0,284.353,14188.3,13824.5,111.68,13936.2,111.68,12562.5,20.5625,1.20856,1185.19,50.8027,0.0,4.27222
283.5,5126.0,284.1528,5062.47,5242.82,63.5279,5306.35,63.5279,4199.12,19.2852,1.16301,973.508,44.633,0.0,5.11173
283.3,2020.0,283.953,1973.44,1918.84,46.5581,1965.4,46.5581,1056.43,18.1251,1.11998,797.448,39.4855,0.0,6.22681
283.1,1070.0,283.753,1030.51,1022.71,39.4909,1062.2,39.4909,305.537,17.0681,1.07929,656.121,35.1538,0.0,7.75362
282.9,711.0,283.553,675.526,706.806,35.4741,742.28,35.4741,104.053,16.1022,1.04077,544.206,31.4793,0.0,9.92497
282.7,495.0,283.353,462.233,550.9,32.7666,583.666,32.7666,37.4441,15.217,1.00428,455.728,28.3389,0.0,13.1671
282.5,400.0,283.1528,369.16,458.254,30.8398,489.094,30.8398,13.4582,14.4037,0.969663,385.452,25.6361,0.0,18.3347
282.3,363.0,282.953,333.796,399.151,29.2041,428.355,29.2041,4.70124,13.6547,0.936803,329.191,23.2951,0.0,27.3723
282.1,358.0,282.753,330.273,366.074,27.7275,393.801,27.7275,1.57116,12.9632,0.905581,283.732,21.2552,0.0,45.6469
281.9,396.0,282.553,369.78,372.929,26.2199,399.149,26.2199,0.49728,12.3235,0.875892,246.641,19.4677,0.0,93.1242
281.7,550.0,282.353,525.507,500.754,24.4934,525.247,24.4934,0.148015,11.7304,0.847635,216.084,17.8933,0.0,254.05
281.5,899.0,282.1528,877.07,863.24,21.9304,885.17,21.9304,0.0412208,11.1796,0.820722,190.677,16.5,0.0,644.022
281.3,1020.0,281.953,1001.99,1014.51,18.0066,1032.52,18.0066,0.0106994,10.667,0.795067,169.363,15.2612,0.0,818.414
281.1,645.0,281.753,630.955,621.983,14.0455,636.028,14.0455,0.00258072,10.1891,0.770595,151.337,14.1554,0.0,445.528
280.9,302.0,281.553,290.212,315.927,11.7882,327.715,11.7882,0.000577078,9.74292,0.747233,135.974,13.1642,0.0,156.298
280.7,194.0,281.353,183.36,210.187,10.64,220.827,10.64,0.000119402,9.32564,0.724915,122.785,12.2726,0.0,65.0785
280.5,149.0,281.1528,139.157,168.027,9.84278,177.869,9.84278,2.28241e-05,8.93479,0.703581,111.389,11.4677,0.0,35.5316
280.3,161.0,280.953,151.787,144.041,9.21289,153.254,9.21289,4.02549e-06,8.56819,0.683174,101.48,10.7389,0.0,22.5701
280.1,140.0,280.753,131.493,127.44,8.50659,135.946,8.50659,6.5435e-07,8.22384,0.66364,92.816,10.0768,0.0,15.6595
279.9,143.0,280.553,135.07,114.737,7.9304,122.667,7.9304,9.79418e-08,7.89998,0.644931,85.1992,9.47362,0.0,11.519
279.7,166.0,280.353,158.699,104.451,7.30051,111.751,7.30051,1.34881e-08,7.595,0.627,78.47,8.92265,0.0,8.83612
279.5,129.0,280.1528,122.334,95.829,6.66649,102.495,6.66649,1.70788e-09,7.30745,0.609806,72.4976,8.41805,0.0,6.99603
279.3,153.0,279.953,146.901,88.4363,6.09856,94.5349,6.09856,1.98716e-10,7.03601,0.593309,67.174,7.95481,0.0,5.67817
279.1,140.0,279.753,134.5,81.9967,5.49965,87.4963,5.49965,2.12364e-11,6.77951,0.577471,62.4096,7.52855,0.0,4.70152
278.9,117.0,279.553,112.041,76.3215,4.95857,81.2801,4.95857,2.08431e-12,6.53686,0.562258,58.1295,7.13546,0.0,3.95742
278.7,126.0,279.353,121.558,71.2752,4.44226,75.7174,4.44226,1.8696e-13,6.30708,0.547637,54.2709,6.7722,0.0,3.37732
278.5,126.0,279.1528,122.045,66.7557,3.95487,70.7106,3.95487,1.49676e-14,6.08926,0.533579,50.7808,6.43585,0.0,2.91626
278.3,139.0,278.953,135.57,62.6842,3.43031,66.1145,3.43031,1.98643e-15,5.88258,0.520054,47.614,6.12382,0.0,2.54371
278.1,144.0,278.753,141.148,58.9977,2.85205,61.8497,2.85205,0.0,5.6863,0.507037,44.7322,5.83384,0.0,2.23834
277.9,114.0,278.553,111.703,55.6454,2.29651,57.9419,2.29651,0.0,5.49973,0.494501,42.1023,5.56389,0.0,1.98491
277.7,126.0,278.353,124.183,52.5853,1.81738,54.4026,1.81738,0.0,5.32223,0.482424,39.6962,5.31217,0.0,1.77226
277.5,115.0,278.1528,113.734,49.7824,1.26597,51.0483,1.26597,0.0,5.15322,0.470784,37.4892,5.07709,0.0,1.59207
277.3,137.0,277.953,136.226,47.2071,0.774453,47.9816,0.774453,0.0,4.99217,0.45956,35.4601,4.85721,0.0,1.43805
277.1,117.0,277.753,116.758,44.8344,0.241629,45.0761,0.241629,0.0,4.83859,0.448731,33.5905,4.65125,0.0,1.30537

File: MX-UT-0.5-3-C1s.csv
#No of rows lightened (2D detector)1(if not using 2D detector, value is 1 and can be ignored!)
raw_x,raw_y,corrected x,data-bg,sum_components,bg,sum_fit,C=C,pi-pi,pi-pi2,C-C,C-O,C_6,TiC
294.7,745.0,295.353,12.0,-684.579,733.0,48.4212,17.29,23.5611,0.0,0.239492,7.04886,0.0,0.28177
294.5,747.0,295.1528,14.0216,-681.273,732.978,51.7051,17.9454,25.8515,0.0,0.249154,7.36868,0.0,0.290427
294.3,787.0,294.953,54.2467,-677.351,732.753,55.402,18.6387,28.4937,0.0,0.259414,7.71067,0.0,0.299489
294.1,845.0,294.753,112.714,-672.694,732.286,59.592,19.373,31.5628,0.0,0.270321,8.07691,0.0,0.308982
293.9,828.0,294.553,96.2287,-667.395,731.771,64.3764,20.1516,35.1541,0.0,0.281932,8.46975,0.0,0.318933
293.7,783.0,294.353,51.7407,-661.376,731.259,69.8829,20.9781,39.3893,0.0,0.294309,8.8918,0.0,0.329374
293.5,782.0,294.1528,51.086,-654.64,730.914,76.2743,21.8565,44.4239,0.0,0.307521,9.34601,0.0,0.340335
293.3,805.0,293.953,74.4397,-646.803,730.56,83.7569,22.7913,50.4563,0.0,0.321644,9.83574,0.0,0.351853
293.1,803.0,293.753,72.9451,-637.465,730.055,92.5899,23.7873,57.7371,0.0,0.336765,10.3647,0.0,0.363966
292.9,823.0,293.553,93.4289,-626.477,729.571,103.094,24.8501,66.5767,0.0,0.35298,10.9373,0.0,0.376715
292.7,817.0,293.353,87.8695,-613.478,729.13,115.652,25.9857,77.3475,0.0,0.370397,11.5583,0.0,0.390145
292.5,829.0,293.1528,100.492,-597.807,728.508,130.701,27.201,90.4734,0.0,0.389139,12.2334,0.0,0.404307
292.3,881.0,292.953,153.269,-579.032,727.731,148.699,28.5036,106.398,0.0,0.409343,12.9688,0.0,0.419255
292.1,859.0,292.753,132.279,-556.657,726.721,170.064,29.9021,125.523,0.0,0.431167,13.7721,0.0,0.435047
291.9,940.0,292.553,214.414,-530.513,725.586,195.073,31.4061,148.109,0.0,0.454787,14.6517,0.0,0.451748
291.7,918.0,292.353,193.619,-500.646,724.381,223.735,33.0264,174.141,0.0,0.480409,15.6175,0.0,0.469429
291.5,931.0,292.1528,207.96,-467.402,723.04,255.637,34.7755,203.184,0.0,0.508265,16.6811,0.0,0.48817
291.3,1036.0,291.953,314.605,-431.57,721.395,289.824,36.6673,234.255,0.0,0.538623,17.8559,0.0,0.508055
291.1,1082.0,291.753,362.743,-394.516,719.257,324.741,38.7179,265.765,0.0,0.571793,19.1578,0.0,0.529181
290.9,1146.0,291.553,429.067,-358.632,716.933,358.301,40.9453,295.591,0.0,0.608135,20.6055,0.0,0.551652
290.7,1111.0,291.353,396.394,-326.504,714.606,388.102,43.3707,321.286,0.0,0.648068,22.2215,0.0,0.575586
290.5,1132.0,291.1528,419.924,-300.302,712.076,411.774,46.0181,340.431,0.0,0.692083,24.0323,0.0,0.601111
290.3,1121.0,290.953,411.571,-282.029,709.429,427.4,48.9156,351.045,0.0,0.740759,26.0701,0.0,0.628373
290.1,1172.0,290.753,465.284,-272.825,706.716,433.891,52.0956,351.969,0.0,0.79478,28.3736,0.0,0.657532
289.9,1103.0,290.553,398.986,-272.782,704.014,431.232,55.5962,343.101,0.0,0.854964,30.9903,0.0,0.68877
289.7,1103.0,290.353,401.5,-281,701.5,420.5,59.4618,325.416,0.0,0.922288,33.9782,0.0,0.722287
289.5,1070.0,290.1528,370.926,-295.399,699.074,403.675,63.7452,300.764,0.0,0.997936,37.4091,0.0,0.758311
289.3,1040.0,289.953,343.047,-313.673,696.953,383.279,68.5086,271.518,0.0,1.08335,41.3726,0.0,0.797099
289.1,1053.0,289.753,358.156,-332.871,694.844,361.974,73.8267,240.147,0.0,1.18029,45.9812,0.0,0.838941
288.9,1086.0,289.553,393.41,-350.393,692.59,342.198,79.7891,208.856,0.0,1.29096,51.3773,0.0,0.884167
288.7,980.0,289.353,289.55,-364.508,690.45,325.942,86.5041,179.343,0.0,1.41809,57.7435,0.0,0.93315
288.5,1017.0,289.1528,328.442,-373.885,688.558,314.673,94.1041,152.702,0.0,1.56514,65.3151,0.0,0.986319
288.3,1018.0,288.953,331.466,-377.14,686.534,309.394,102.752,129.463,0.0,1.73657,74.3982,0.0,1.04417
288.1,1016.0,288.753,331.406,-373.798,684.594,310.796,112.648,109.707,0.0,1.93814,85.395,0.0,1.10725
287.9,1046.0,288.553,363.49,-363.058,682.51,319.452,124.047,93.214,0.0,2.17744,98.8365,0.0,1.17624
287.7,1060.0,288.353,379.751,-344.236,680.249,336.013,137.269,79.6002,0.0,2.46469,115.427,0.0,1.25187
287.5,1121.0,288.1528,443.271,-316.335,677.729,361.394,152.722,68.4241,0.0,2.81386,136.099,0.0,1.33505
287.3,1087.0,287.953,411.752,-278.309,675.248,396.939,170.938,59.2548,0.0,3.24455,162.075,0.0,1.42679
287.1,1110.0,287.753,437.386,-228.072,672.614,444.542,192.615,51.7092,0.0,3.78501,194.904,0.0,1.52833
286.9,1159.0,287.553,489.372,-162.946,669.628,506.682,218.68,45.465,0.0,4.47735,236.418,0.0,1.6411
286.7,1241.0,287.353,574.665,-80.1151,666.335,586.22,250.387,40.2611,0.0,5.38714,288.417,0.0,1.76684
286.5,1293.0,287.1528,630.407,23.029,662.593,685.622,289.451,35.8899,0.0,6.62243,351.751,0.0,1.90759
286.3,1497.0,286.953,838.952,147.116,658.048,805.164,338.26,32.1888,0.0,8.37743,424.272,0.0,2.06586
286.1,1597.0,286.753,944.294,287.487,652.706,940.194,400.194,29.0304,0.0,11.0539,497.671,0.0,2.24468
285.9,1667.0,286.553,1020.32,433.431,646.678,1080.11,480.152,26.3149,0.0,15.6614,555.534,0.0,2.44775
285.7,1773.0,286.353,1133.07,575.606,639.935,1215.54,585.437,23.9639,0.0,25.1276,578.333,0.0,2.67968
285.5,1907.0,286.1528,1274.85,724.408,632.153,1356.56,727.38,21.9153,0.0,47.6728,556.646,0.0,2.9462
285.3,2190.0,285.953,1566.74,925.847,623.264,1549.11,924.552,20.1193,0.0,101.727,499.459,0.0,3.25455
285.1,2492.0,285.753,1879.33,1259.25,612.67,1871.92,1209.69,18.5362,0.0,213.856,426.223,0.0,3.61396
284.9,2917.0,285.553,2317.17,1815.19,599.827,2415.02,1646.34,17.1335,0.0,393.973,353.54,0.0,4.03635
284.7,3788.0,285.353,3205.19,2697.26,582.811,3280.08,2374.64,15.8848,0.0,595.094,289.921,0.0,4.53736
284.5,5145.0,285.1528,4585.55,4171.59,559.449,4731.03,3758.8,14.7683,0.0,714.695,237.63,0.0,5.13777
284.3,8704.0,284.953,8182.54,7256.39,521.458,7777.85,6887.15,13.766,0.0,675.206,195.865,0.0,5.8657
284.1,15457.0,284.753,15005.6,14096.9,451.446,14548.3,13862.5,12.8626,0.0,503.379,162.834,0.0,6.76001
283.9,21076.0,284.553,20736.7,20217.9,339.258,20557.2,20098.8,12.0457,0.0,301.765,136.702,0.0,7.87552
283.7,14300.0,284.353,14071.5,13924.1,228.471,14152.6,13863.9,11.3045,0.0,152.184,115.908,0.0,9.29165
283.5,5126.0,284.1528,4953.9,5264.6,172.095,5436.69,5245.07,10.6298,0.0,70.6419,99.2245,0.0,11.1269
283.3,2020.0,283.953,1867.4,1796.71,152.596,1949.31,1805.5,10.014,0.0,34.5182,85.7109,0.0,13.5645
283.1,1070.0,283.753,925.554,689.114,144.446,833.56,712.837,9.4503,0.0,19.7148,74.6579,0.0,16.8996
282.9,711.0,283.553,571.109,280.523,139.891,420.414,311.186,8.93305,0.0,13.1318,65.5306,0.0,21.6331
282.7,495.0,283.353,357.957,110.233,137.043,247.276,142.591,8.45726,0.0,9.63445,57.924,0.0,28.6696
282.5,400.0,283.1528,264.843,38.1359,135.157,173.293,66.4991,8.01858,0.0,7.46615,51.5297,0.0,39.7796
282.3,363.0,282.953,229.395,15.9021,133.605,149.507,30.9832,7.61326,0.0,5.98932,46.1108,0.0,58.8108
282.1,358.0,282.753,225.768,31.0309,132.232,163.263,14.2498,7.23799,0.0,4.92509,41.4837,0.0,95.3661
281.9,396.0,282.553,265.262,101.914,130.738,232.651,6.41639,6.88986,0.0,4.12818,37.505,0.0,177.712
281.7,550.0,282.353,421.271,306.7,128.729,435.429,2.81189,6.56631,0.0,3.51397,34.0615,0.0,388.475
281.5,899.0,282.1528,773.842,685.064,125.158,810.222,1.19403,6.26508,0.0,3.02957,31.063,0.0,768.67
281.3,1020.0,281.953,900.116,741.774,119.884,861.658,0.48963,5.98415,0.0,2.64025,28.4375,0.0,824.106
281.1,645.0,281.753,529.715,368.789,115.285,484.074,0.193378,5.72174,0.0,2.32235,26.1264,0.0,449.71
280.9,302.0,281.553,188.847,121.271,113.153,234.424,0.0734011,5.47625,0.0,2.05921,24.0823,0.0,202.733
280.7,194.0,281.353,81.6974,22.5785,112.303,134.881,0.0267302,5.24626,0.0,1.83881,22.266,0.0,105.503
280.5,149.0,281.1528,37.1259,-20.8424,111.874,91.0317,0.00932573,5.03048,0.0,1.65229,20.6453,0.0,63.6942
280.3,161.0,280.953,49.395,-43.6112,111.605,67.9938,0.00311332,4.82777,0.0,1.49299,19.1935,0.0,42.4765
280.1,140.0,280.753,28.729,-57.0794,111.271,54.1916,0.000993543,4.63709,0.0,1.35583,17.8881,0.0,30.3096
279.9,143.0,280.553,31.9078,-65.9845,111.092,45.1078,0.000302827,4.45751,0.0,1.23686,16.7102,0.0,22.7029
279.7,166.0,280.353,55.1986,-72.1008,110.801,38.7006,8.80899e-05,4.28818,0.0,1.13297,15.6439,0.0,17.6355
279.5,129.0,280.1528,18.405,-76.6572,110.595,33.9378,2.444e-05,4.12833,0.0,1.04171,14.6757,0.0,14.092
279.3,153.0,279.953,42.6079,-80.1419,110.392,30.2502,6.46365e-06,3.97726,0.0,0.961108,13.794,0.0,11.5178
279.1,140.0,279.753,29.8014,-82.8966,110.199,27.3021,1.6287e-06,3.83435,0.0,0.889551,12.9888,0.0,9.58932
278.9,117.0,279.553,6.89427,-85.2219,110.106,24.8838,3.90844e-07,3.69902,0.0,0.825731,12.2517,0.0,8.10739
278.7,126.0,279.353,16.0,-87.1414,110.0,22.8586,8.92889e-08,3.57074,0.0,0.768568,11.5752,0.0,6.94412
278.5,126.0,279.1528,16.0,-88.8667,110.0,21.1333,1.94122e-08,3.44902,0.0,0.717163,10.9528,0.0,6.01431
278.3,139.0,278.953,29.0,-90.3573,110.0,19.6427,4.01514e-09,3.33343,0.0,0.670765,10.3791,0.0,5.25945
278.1,144.0,278.753,34.0,-91.6605,110.0,18.3395,7.89872e-10,3.22356,0.0,0.628743,9.84898,0.0,4.63825
277.9,114.0,278.553,4.0,-92.8112,110.0,17.1888,1.47753e-10,3.11905,0.0,0.590561,9.35828,0.0,4.12092
277.7,126.0,278.353,16.0,-93.836,110.0,16.164,2.62738e-11,3.01954,0.0,0.555765,8.90318,0.0,3.68554
277.5,115.0,278.1528,5.0,-94.7553,110.0,15.2447,4.43986e-12,2.92472,0.0,0.523963,8.48034,0.0,3.31568
277.3,137.0,277.953,27.0,-95.5853,110.0,14.4147,7.12154e-13,2.8343,0.0,0.494822,8.08678,0.0,2.99882
277.1,117.0,277.753,7.0,-96.3388,110.0,13.6612,1.09275e-13,2.74802,0.0,0.468052,7.71987,0.0,2.72529