Folder: python_code_MXene_VRFB/XPS/LG4X-result (part 8)

File: MX-UT-0.1-Cl2p.csv
#No of rows lightened (2D detector)1(if not using 2D detector, value is 1 and can be ignored!),,,,,,,,
raw_x,raw_y,corrected x,data-bg,sum_components,bg,sum_fit,bg_shirley_,Ti-Cl,Ti-Cl (2p Â½)
208,39,208.4255,-0.163705,2.15168,39.1637,41.3154,39.1637,0.867233,1.28445
207.8,61,208.2255,21.8363,2.25859,39.1637,41.4223,39.1637,0.905472,1.35311
207.6,21,208.0255,-18.1637,2.37375,39.1637,41.5375,39.1637,0.946302,1.42745
207.4,41,207.8255,1.83629,2.49805,39.1637,41.6618,39.1637,0.989961,1.50809
207.2,50,207.6255,10.8363,2.6325,39.1637,41.7962,39.1637,1.03672,1.59578
207,35,207.4255,-4.16371,2.77824,39.1637,41.9419,39.1637,1.08687,1.69137
206.8,1,207.2255,-38.1637,2.93659,39.1637,42.1003,39.1637,1.14077,1.79583
206.6,30,207.0255,-9.16371,3.10907,39.1637,42.2728,39.1637,1.19878,1.91029
206.4,35,206.8255,-4.16371,3.29743,39.1637,42.4611,39.1637,1.26134,2.0361
206.2,73,206.6255,33.8363,3.50372,39.1637,42.6674,39.1637,1.32893,2.17479
206,7,206.4255,-32.1637,3.73032,39.1637,42.894,39.1637,1.40213,2.32819
205.8,3,206.2255,-36.1637,3.98003,39.1637,43.1437,39.1637,1.48155,2.49847
205.6,7.00076,206.0255,-32.1629,4.25616,39.1637,43.4199,39.1637,1.56794,2.68821
205.4,70.0153,205.8255,30.8516,4.56264,39.1637,43.7263,39.1637,1.66214,2.9005
205.2,13.0427,205.6255,-26.121,4.90419,39.1637,44.0679,39.1637,1.7651,3.13908
205,72.0586,205.4255,32.8949,5.28648,39.1637,44.4502,39.1637,1.87798,3.4085
204.8,56.0873,205.2255,16.9235,5.7164,39.1637,44.8801,39.1637,2.00207,3.71434
204.6,25.1121,205.0255,-14.0516,6.20242,39.1637,45.3661,39.1637,2.13892,4.0635
204.4,89.1331,204.8255,49.9694,6.75498,39.1637,45.9187,39.1637,2.29036,4.46463
204.2,56.1617,204.6255,16.998,7.38718,39.1637,46.5509,39.1637,2.45853,4.92865
204,59.1864,204.4255,20.0227,8.11556,39.1637,47.2793,39.1637,2.64602,5.46954
203.8,38.2075,204.2255,-0.956173,8.96132,39.1637,48.125,39.1637,2.8559,6.10542
203.6,85.2263,204.0255,46.0626,9.95207,39.1637,49.1158,39.1637,3.09192,6.86015
203.4,94.2613,203.8255,55.0976,11.1243,39.1637,50.288,39.1637,3.35862,7.76566
203.2,74.2946,203.6255,35.1309,12.5271,39.1637,51.6908,39.1637,3.66161,8.86552
203,33.3165,203.4255,-5.84723,14.2284,39.1637,53.3921,39.1637,4.00781,10.2205
202.8,30.3331,203.2255,-8.83059,16.3237,39.1637,55.4874,39.1637,4.40593,11.9178
202.6,61.3557,203.0255,22.192,18.9528,39.1637,58.1165,39.1637,4.86699,14.0859
202.4,64.3808,202.8255,25.2171,22.3269,39.1637,61.4906,39.1637,5.4051,16.9218
202.2,60.4147,202.6255,21.251,26.7805,39.1637,65.9442,39.1637,6.03867,20.7418
202,95.4447,202.4255,56.281,32.8742,39.1637,72.0379,39.1637,6.79196,26.0823
201.8,103.481,202.2255,64.3177,41.6109,39.1637,80.7746,39.1637,7.69763,33.9133
201.6,98.525,202.0255,59.3613,54.8866,39.1637,94.0503,39.1637,8.80047,46.0862
201.4,109.576,201.8255,70.4121,76.3015,39.1637,115.465,39.1637,10.1634,66.138
201.2,124.633,201.6255,85.4697,111.951,39.1637,151.115,39.1637,11.8773,100.074
201,206.703,201.4255,167.539,168.897,39.1637,208.061,39.1637,14.078,154.819
200.8,277.811,201.2255,238.648,246.398,39.1637,285.562,39.1637,16.9768,229.421
200.6,366.944,201.0255,327.781,320.292,39.1637,359.456,39.1637,20.9214,299.371
200.4,399.118,200.8255,359.954,343.718,39.1637,382.882,39.1637,26.5275,317.191
200.2,320.279,200.6255,281.115,290.969,39.1637,330.133,39.1637,34.9982,255.971
200,193.395,200.4255,154.231,199.93,39.1637,239.094,39.1637,48.9497,150.98
199.8,180.482,200.2255,141.319,138.36,39.1637,177.524,39.1637,74.3778,63.9823
199.6,225.565,200.0255,186.402,143.532,39.1637,182.696,39.1637,123.91,19.6223
199.4,267.666,199.8255,228.503,221.469,39.1637,260.633,39.1637,216.979,4.49093
199.2,405.816,199.6255,366.652,363.572,39.1637,402.736,39.1637,362.768,0.804081
199,536.018,199.4255,496.855,518.618,39.1637,557.781,39.1637,518.5,0.117884
198.8,585.279,199.2255,546.115,577.421,39.1637,616.584,39.1637,577.406,0.0144962
198.6,521.532,199.0255,482.368,468.871,39.1637,508.034,39.1637,468.869,0.00149406
198.4,281.707,198.8255,242.544,266.631,39.1637,305.795,39.1637,266.631,0.00012742
198.2,175.808,198.6255,136.644,104.556,39.1637,143.719,39.1637,104.556,8.87344e-06
198,43.846,198.4255,4.6823,28.6013,39.1637,67.7649,39.1637,28.6013,4.99531e-07
197.8,49.8739,198.2255,10.7102,5.69848,39.1637,44.8622,39.1637,5.69848,2.25718e-08
197.6,68.8949,198.0255,29.7312,0.889158,39.1637,40.0528,39.1637,0.889158,8.1452e-10
197.4,29.9221,197.8255,-9.2416,0.117101,39.1637,39.2808,39.1637,0.117101,2.33851e-11
197.2,58.937,197.6255,19.7733,0.0134721,39.1637,39.1772,39.1637,0.0134721,5.32402e-13
197,29.9531,197.4255,-9.21062,0.00133706,39.1637,39.165,39.1637,0.00133706,9.72583e-15
196.8,62.9667,197.2255,23.803,0.000111335,39.1637,39.1638,39.1637,0.000111335,0
196.6,15.9793,197.0255,-23.1844,7.61215e-06,39.1637,39.1637,39.1637,7.61215e-06,0
196.4,36.9883,196.8255,-2.17537,4.21689e-07,39.1637,39.1637,39.1637,4.21689e-07,0
196.2,22,196.6255,-17.1637,1.87708e-08,39.1637,39.1637,39.1637,1.87708e-08,0
196,13,196.4255,-26.1637,6.67661e-10,39.1637,39.1637,39.1637,6.6766e-10,0
195.8,49,196.2255,9.83631,1.89004e-11,39.1637,39.1637,39.1637,1.89004e-11,0
195.6,2,196.0255,-37.1637,4.26326e-13,39.1637,39.1637,39.1637,4.24752e-13,0
195.4,26,195.8255,-13.1637,7.10543e-15,39.1637,39.1637,39.1637,7.3466e-15,0
195.2,55,195.6255,15.8363,0,39.1637,39.1637,39.1637,0,0
195,35,195.4255,-4.16369,0,39.1637,39.1637,39.1637,0,0

File: MX-UT-0.1-F1s.csv
#No of rows lightened (2D detector)1(if not using 2D detector, value is 1 and can be ignored!)
raw_x,raw_y,corrected x,data-bg,sum_components,bg,sum_fit,Ti-F,TiF2
690.5,7255.0,690.9195,20.0,-7186.05,7235.0,48.9487,42.6813,6.26749
690.4,7257.0,690.8195,22.0,-7184.45,7235.0,50.5473,44.0939,6.45345
690.3,7332.0,690.719,97.0,-7182.77,7235.0,52.2254,45.5776,6.64779
690.2,7351.0,690.6195,116.0,-7181.01,7235.0,53.9884,47.1373,6.85103
690.1,7391.0,690.5195,156.0,-7179.16,7235.0,55.842,48.7783,7.06371
690.0,7378.0,690.4195,143.0,-7177.21,7235.0,57.7925,50.5061,7.28642
689.9,7275.0,690.3195,40.0,-7175.15,7235.0,59.8469,52.3271,7.51981
689.8,7315.0,690.219,80.0,-7172.99,7235.0,62.0126,54.2481,7.76457
689.7,7300.0,690.1195,65.0,-7170.7,7235.0,64.2978,56.2764,8.02144
689.6,7322.0,690.0195,87.0,-7168.29,7235.0,66.7115,58.4202,8.29123
689.5,7286.0,689.9195,51.0,-7165.74,7235.0,69.2633,60.6885,8.57483
689.4,7313.0,689.8195,78.0,-7163.04,7235.0,71.9642,63.091,8.87318
689.3,7305.0,689.719,70.0,-7160.17,7235.0,74.8257,65.6384,9.18734
689.2,7385.0,689.6195,150.0,-7157.14,7235.0,77.861,68.3426,9.51842
689.1,7451.0,689.5195,216.0,-7153.92,7235.0,81.0843,71.2167,9.86767
689.0,7404.0,689.4195,169.0,-7150.49,7235.0,84.5115,74.2751,10.2364
688.9,7364.0,689.3195,129.0,-7146.84,7235.0,88.16,77.5339,10.6262
688.8,7537.0,689.219,302.0,-7142.95,7235.0,92.0494,81.0108,11.0385
688.7,7499.0,689.1195,264.0,-7138.8,7235.0,96.201,84.7257,11.4753
688.6,7304.0,689.0195,69.0,-7134.36,7235.0,100.639,88.7008,11.9383
688.5,7235.0,688.9195,0.0,-7129.61,7235.0,105.39,92.9605,12.4299
688.4,7464.0,688.8195,229.103,-7124.41,7234.9,110.485,97.5328,12.9523
688.3,7378.0,688.719,143.269,-7118.77,7234.73,115.957,102.449,13.5082
688.2,7473.0,688.6195,238.44,-7112.72,7234.56,121.844,107.743,14.1005
688.1,7382.0,688.5195,147.613,-7106.2,7234.39,128.188,113.456,14.7324
688.0,7364.0,688.4195,129.738,-7099.22,7234.26,135.04,119.632,15.4076
687.9,7439.0,688.3195,204.888,-7091.66,7234.11,142.452,126.322,16.1299
687.8,7324.0,688.219,90.0197,-7083.49,7233.98,150.489,133.585,16.904
687.7,7320.0,688.1195,86.0986,-7074.68,7233.9,159.221,141.487,17.7348
687.6,7442.0,688.0195,208.23,-7065.04,7233.77,168.732,150.104,18.628
687.5,7566.0,687.9195,332.473,-7054.41,7233.53,179.114,159.524,19.59
687.4,7372.0,687.8195,138.684,-7042.84,7233.32,190.478,169.85,20.6279
687.3,7601.0,687.719,367.911,-7030.14,7233.09,202.95,181.2,21.7499
687.2,7463.0,687.6195,230.179,-7016.14,7232.82,216.678,193.712,22.9652
687.1,7564.0,687.5195,331.43,-7000.74,7232.57,231.833,207.548,24.2844
687.0,7430.0,687.4195,197.667,-6983.71,7232.33,248.618,222.898,25.7195
686.9,7517.0,687.3195,284.883,-6964.84,7232.12,267.273,239.988,27.2845
686.8,7462.0,687.219,230.114,-6943.8,7231.89,288.082,259.086,28.9953
686.7,7583.0,687.1195,351.375,-6920.24,7231.63,311.383,280.513,30.8703
686.6,7574.0,687.0195,342.686,-6893.73,7231.31,337.585,304.654,32.931
686.5,7590.0,686.9195,359,-6863.82,7231,367.179,331.976,35.2025
686.4,7744.0,686.8195,513.391,-6829.85,7230.61,400.761,363.047,37.714
686.3,7638.0,686.719,407.803,-6791.13,7230.2,439.064,398.564,40.5
686.2,7714.0,686.6195,484.203,-6746.81,7229.8,482.987,439.385,43.6014
686.1,7765.0,686.5195,535.66,-6695.7,7229.34,533.642,486.575,47.0667
686.0,7815.0,686.4195,586.163,-6636.42,7228.84,592.418,541.464,50.954
685.9,7834.0,686.3195,605.696,-6567.25,7228.3,661.049,605.716,55.3329
685.8,7900.0,686.219,672.269,-6486.02,7227.73,741.706,681.418,60.2879
685.7,7951.0,686.1195,723.894,-6390.01,7227.11,837.101,771.179,65.9217
685.6,8083.0,686.0195,856.603,-6275.82,7226.4,950.573,878.213,72.3601
685.5,8288.0,685.9195,1062.46,-6139.39,7225.54,1086.15,1006.39,79.7582
685.4,8354.0,685.8195,1129.44,-5976.12,7224.56,1248.43,1160.12,88.3083
685.3,8602.0,685.719,1378.57,-5781.17,7223.43,1442.27,1344.02,98.2502
685.2,9004.0,685.6195,1781.98,-5550.23,7222.02,1671.78,1561.9,109.884
685.1,9261.0,685.5195,2040.7,-5281.76,7220.3,1938.54,1814.96,123.587
685.0,9565.0,685.4195,2346.66,-4980.1,7218.34,2238.24,2098.41,139.827
684.9,9897.0,685.3195,2680.91,-4660.29,7216.09,2555.8,2396.62,159.185
684.8,10249.0,685.219,3035.47,-4353.8,7213.53,2859.73,2677.37,182.355
684.7,10300.0,685.1195,3089.22,-4111.45,7210.78,3099.33,2889.19,210.135
684.6,10300.0,685.0195,3091.99,-3996.51,7208.01,3211.5,2968.15,243.349
684.5,10224.0,684.9195,3018.73,-4062.68,7205.27,3142.59,2859.9,282.688
684.4,10065.0,684.8195,2862.36,-4323.11,7202.64,2879.53,2551.16,328.366
684.3,9696.0,684.719,2495.76,-4731.99,7200.24,2468.25,2088.72,379.53
684.2,9198.0,684.6195,1999.77,-5199.89,7198.23,1998.33,1564.96,433.377
684.1,8769.0,684.5195,1572.37,-5636.53,7196.63,1560.09,1075.95,484.146
684.0,8436.0,684.4195,1240.63,-5989.27,7195.37,1206.09,683.486,522.609
683.9,8132.0,684.3195,937.611,-6252.45,7194.39,941.941,404.666,537.275
683.8,8002.0,684.219,808.393,-6450.13,7193.61,743.473,225.17,518.304
683.7,7888.0,684.1195,695.067,-6611.27,7192.93,581.667,118.531,463.137
683.6,7568.0,684.0195,375.546,-6753.17,7192.45,439.281,59.29,379.991
683.5,7444.0,683.9195,251.827,-6878.53,7192.17,313.642,28.252,285.39
683.4,7288.0,683.8195,95.983,-6982.47,7192.02,209.543,12.8382,196.705
683.3,7411.0,683.719,219.124,-7061.05,7191.88,130.825,5.56437,125.261
683.2,7407.0,683.6195,215.319,-7115.05,7191.68,76.6309,2.29945,74.3314
683.1,7506.0,683.5195,314.556,-7149.09,7191.44,42.3515,0.905395,41.4462
683.0,7352.0,683.4195,160.769,-7169.03,7191.23,22.1977,0.339407,21.8583
682.9,7363.0,683.3195,171.918,-7180.01,7191.08,11.0733,0.121036,10.9522
682.8,7322.0,683.219,131.054,-7185.68,7190.95,5.26803,0.0410277,5.227
682.7,7263.0,683.1195,72.145,-7188.46,7190.86,2.39197,0.0132093,2.37876
682.6,7319.0,683.0195,128.235,-7189.73,7190.77,1.03651,0.00403663,1.03248
682.5,7258.0,682.9195,67.3223,-7190.25,7190.68,0.428426,0.00117009,0.427256
682.4,7332.0,682.8195,141.416,-7190.42,7190.58,0.16878,0.000321537,0.168459
682.3,7294.0,682.719,103.526,-7190.41,7190.47,0.0633191,8.37195e-05,0.0632354
682.2,7302.0,682.6195,111.622,-7190.36,7190.38,0.0226013,2.06443e-05,0.0225807
682.1,7326.0,682.5195,135.733,-7190.26,7190.27,0.00766924,4.81912e-06,0.00766442
682.0,7377.0,682.4195,186.877,-7190.12,7190.12,0.002472,1.06454e-06,0.00247094
681.9,7277.0,682.3195,87.0,-7190,7190.0,0.000756329,2.22447e-07,0.000756107
681.8,7190.0,682.219,0.0,-7190,7190.0,0.00021951,4.39573e-08,0.000219466
681.7,7219.0,682.1195,29.0,-7190,7190.0,6.03981e-05,8.212e-09,6.03899e-05
681.6,7252.0,682.0195,62.0,-7190,7190.0,1.57466e-05,1.44999e-09,1.57451e-05

File: MX-UT-0.1-O1s.csv
#No of rows lightened (2D detector)1(if not using 2D detector, value is 1 and can be ignored!),,,,,,,,
raw_x,raw_y,corrected x,data-bg,sum_components,bg,sum_fit,bg_shirley_,C-O,TiO2
540,134,540.6539,-53.099,3.43468e-06,187.099,187.099,187.099,3.43468e-06,9.95344e-174
539.8,139,540.4539,-48.099,9.16432e-06,187.099,187.099,187.099,9.16432e-06,3.67673e-167
539.6,52,540.2539,-135.099,2.38666e-05,187.099,187.099,187.099,2.38666e-05,1.01953e-160
539.4,320,540.0539,132.901,6.06676e-05,187.099,187.099,187.099,6.06676e-05,2.12222e-154
539.2,89,539.8539,-98.099,0.000150522,187.099,187.099,187.099,0.000150522,3.31611e-148
539,117,539.6539,-70.099,0.000364516,187.099,187.099,187.099,0.000364516,3.88973e-142
538.8,254,539.4539,66.901,0.000861611,187.099,187.1,187.099,0.000861611,3.425e-136
538.6,178,539.2539,-9.09902,0.00198784,187.099,187.101,187.099,0.00198784,2.26387e-130
538.4,102,539.0539,-85.099,0.00447639,187.099,187.104,187.099,0.00447639,1.1233e-124
538.2,20,538.8539,-167.099,0.00983898,187.099,187.109,187.099,0.00983898,4.18395e-119
538,169,538.6539,-18.099,0.0211081,187.099,187.12,187.099,0.0211081,1.16985e-113
537.8,99,538.4539,-88.099,0.0442,187.099,187.143,187.099,0.0442,2.4554e-108
537.6,104,538.2539,-83.099,0.0903385,187.099,187.189,187.099,0.0903385,3.86872e-103
537.4,0,538.0539,-187.099,0.180218,187.099,187.279,187.099,0.180218,4.57574e-98
537.2,219.483,537.8539,32.3836,0.350914,187.099,187.45,187.099,0.350914,4.06262e-93
537,91.0526,537.6539,-96.0464,0.666929,187.099,187.766,187.099,0.666929,2.70771e-88
536.8,218.836,537.4539,31.7371,1.23718,187.099,188.336,187.099,1.23718,1.35472e-83
536.6,195.479,537.2539,8.38024,2.24008,187.099,189.339,187.099,2.24008,5.08798e-79
536.4,201.303,537.0539,14.2044,3.95886,187.099,191.058,187.099,3.95886,1.43447e-74
536.2,158.076,536.8539,-29.0227,6.82892,187.099,193.928,187.099,6.82892,3.03592e-70
536,312.989,536.6539,125.89,11.4977,187.099,198.597,187.099,11.4977,4.82323e-66
535.8,94.5198,536.4539,-92.5793,18.8949,187.099,205.994,187.099,18.8949,5.75224e-62
535.6,195.162,536.2539,8.0627,30.3078,187.099,217.407,187.099,30.3078,5.14975e-58
535.4,206.178,536.0539,19.0787,47.4505,187.099,234.55,187.099,47.4505,3.46088e-54
535.2,272.246,535.8539,85.1472,72.5109,187.099,259.61,187.099,72.5109,1.74597e-50
535,381.529,535.6539,194.43,108.154,187.099,295.253,187.099,108.154,6.61207e-47
534.8,330.778,535.4539,143.679,157.455,187.099,344.554,187.099,157.455,1.8797e-43
534.6,364.948,535.2539,177.849,223.741,187.099,410.84,187.099,223.741,4.01135e-40
534.4,372.265,535.0539,185.166,310.322,187.099,497.421,187.099,310.322,6.42604e-37
534.2,664.891,534.8539,477.792,420.102,187.099,607.201,187.099,420.102,7.72763e-34
534,689.277,534.6539,502.178,555.102,187.099,742.201,187.099,555.102,6.9759e-31
533.8,886.127,534.4539,699.028,715.924,187.099,903.023,187.099,715.924,4.7272e-28
533.6,1036.58,534.2539,849.477,901.233,187.099,1088.33,187.099,901.233,2.40469e-25
533.4,1230.72,534.0539,1043.62,1107.35,187.099,1294.44,187.099,1107.35,9.18256e-23
533.2,1563.65,533.8539,1376.55,1328.02,187.099,1515.12,187.099,1328.02,2.6322e-20
533,1709.51,533.6539,1522.41,1554.55,187.099,1741.64,187.099,1554.55,5.66403e-18
532.8,2079.3,533.4539,1892.2,1776.14,187.099,1963.24,187.099,1776.14,9.14919e-16
532.6,2291.88,533.2539,2104.78,1980.74,187.099,2167.84,187.099,1980.74,1.1094e-13
532.4,2354.81,533.0539,2167.71,2156.03,187.099,2343.13,187.099,2156.03,1.00983e-11
532.2,2355.48,532.8539,2168.38,2290.64,187.099,2477.74,187.099,2290.64,6.90011e-10
532,2555.22,532.6539,2368.12,2375.39,187.099,2562.49,187.099,2375.39,3.53928e-08
531.8,2704.62,532.4539,2517.52,2404.3,187.099,2591.4,187.099,2404.3,1.36278e-06
531.6,2478.7,532.2539,2291.6,2375.3,187.099,2562.4,187.099,2375.3,3.93898e-05
531.4,2544.71,532.0539,2357.62,2290.47,187.099,2477.57,187.099,2290.47,0.000854662
531.2,2368.41,531.8539,2181.31,2155.81,187.099,2342.91,187.099,2155.79,0.0139205
531,2005.11,531.6539,1818.01,1980.63,187.099,2167.73,187.099,1980.46,0.170203
530.8,1912.2,531.4539,1725.1,1777.38,187.099,1964.48,187.099,1775.82,1.56217
530.6,1727.55,531.2539,1540.45,1564.97,187.099,1752.07,187.099,1554.21,10.7632
530.4,1596.33,531.0539,1409.23,1383.36,187.099,1570.45,187.099,1327.69,55.6679
530.2,1562.17,530.8539,1375.07,1323.16,187.099,1510.26,187.099,1107.03,216.132
530,1944.21,530.6539,1757.11,1530.86,187.099,1717.96,187.099,900.941,629.916
529.8,2214.46,530.4539,2027.36,2093.82,187.099,2280.92,187.099,715.666,1378.15
529.6,2896.56,530.2539,2709.46,2818.29,187.099,3005.39,187.099,554.882,2263.41
529.4,3480.74,530.0539,3293.65,3210.39,187.099,3397.49,187.099,419.92,2790.47
529.2,3154.66,529.8539,2967.56,2892.7,187.099,3079.8,187.099,310.176,2582.52
529,2213.52,529.6539,2026.42,2017.79,187.099,2204.89,187.099,223.628,1794.16
528.8,1116.3,529.4539,929.205,1093.05,187.099,1280.15,187.099,157.37,935.682
528.6,657.308,529.2539,470.21,474.399,187.099,661.498,187.099,108.091,366.308
528.4,387.161,529.0539,200.062,180.117,187.099,367.215,187.099,72.4665,107.65
528.2,360.653,528.8539,173.555,71.1681,187.099,258.267,187.099,47.4198,23.7484
528,231.771,528.6539,44.6723,34.2199,187.099,221.318,187.099,30.2871,3.93281
527.8,279.77,528.4539,92.6718,19.3702,187.099,206.469,187.099,18.8813,0.488903
527.6,219.604,528.2539,32.5059,11.5346,187.099,198.633,187.099,11.489,0.045624
527.4,0,528.0539,-187.099,6.82671,187.099,193.925,187.099,6.82351,0.00319606
527.2,36,527.8539,-151.099,3.95575,187.099,191.054,187.099,3.95558,0.000168068
527,154,527.6539,-33.0986,2.23815,187.099,189.337,187.099,2.23815,6.6345e-06
526.8,304,527.4539,116.901,1.23607,187.099,188.335,187.099,1.23607,1.96599e-07
526.6,259,527.2539,71.9015,0.666304,187.099,187.765,187.099,0.666304,4.37325e-09
526.4,231,527.0539,43.9015,0.350573,187.099,187.449,187.099,0.350573,7.3026e-11
526.2,175,526.8539,-12.0985,0.180037,187.099,187.279,187.099,0.180037,9.15381e-13
526,165,526.6539,-22.0985,0.0902442,187.099,187.189,187.099,0.0902442,8.61344e-15
525.8,210,526.4539,22.9015,0.0441523,187.099,187.143,187.099,0.0441523,6.08418e-17
525.6,339,526.2539,151.901,0.0210845,187.099,187.12,187.099,0.0210845,3.2261e-19
525.4,173,526.0539,-14.0985,0.00982764,187.099,187.108,187.099,0.00982764,1.28411e-21
525.2,355,525.8539,167.901,0.00447107,187.099,187.103,187.099,0.00447107,3.8369e-24
525,235,525.6539,47.9015,0.00198541,187.099,187.101,187.099,0.00198541,8.60613e-27

File: MX-UT-0.1-Ti2p.csv
#No of rows lightened (2D detector)1(if not using 2D detector, value is 1 and can be ignored!),,,,,,,,,,,,
raw_x,raw_y,corrected x,data-bg,sum_components,bg,sum_fit,TiC,Ti 2+,Ti 3+,Ti 4+,TiC (2p1/2),Ti 2+ (2p1/2),C_7
467.5,14242,467.9195,286,-13575.2,13956,380.831,4.17942e-192,2.09791e-112,6.00131e-96,66.0441,2.57418e-17,0.0371699,314.749
467.2,14236,467.6195,280,-13627.5,13956,328.491,4.66294e-183,1.29579e-106,1.59673e-90,70.2644,1.34564e-15,0.120528,258.106
466.9,14296,467.3195,340,-13669.4,13956,286.648,3.17552e-174,5.68086e-101,2.98413e-85,74.8972,5.90301e-14,0.365552,211.386
466.6,14075,467.0195,119,-13702.1,13956,253.935,1.32e-165,1.76776e-95,3.91745e-80,79.9972,2.17304e-12,1.037,172.901
466.3,14187,466.7195,231,-13726.4,13956,229.623,3.34908e-157,3.90451e-90,3.61235e-75,85.6285,6.71296e-11,2.75152,141.243
466,14232,466.4195,276,-13742.1,13956,213.928,5.18637e-149,6.12123e-85,2.33979e-70,91.8663,1.74025e-09,6.82861,115.233
465.7,14146,466.1195,190,-13747.5,13956,208.544,4.90206e-141,6.8115e-80,1.06454e-65,98.7992,3.7858e-08,15.8511,93.8936
465.4,14139,465.8195,185.382,-13736.3,13953.6,217.356,2.82788e-133,5.37995e-75,3.40212e-61,106.532,6.91115e-07,34.4153,76.4079
465.1,14234,465.5195,286.098,-13700.7,13947.9,247.18,9.95635e-126,3.01609e-70,7.63723e-57,115.191,1.05872e-05,69.8893,62.0992
464.8,14140,465.2195,196.728,-13635.2,13943.3,308.082,2.13937e-118,1.20017e-65,1.20427e-52,124.926,0.000136091,132.75,50.4055
464.5,14421,464.9195,487.305,-13521.1,13933.7,412.626,2.8055e-111,3.38978e-61,1.33386e-48,135.918,0.00146775,235.845,40.8616
464.2,14554,464.6195,633.387,-13347.2,13920.6,573.39,2.24522e-104,6.79565e-57,1.03776e-44,148.387,0.0132788,391.907,33.0825
463.9,14687,464.3195,780.031,-13108.4,13907,798.578,1.09654e-97,9.66991e-53,5.67132e-41,162.602,0.100733,609.125,26.7501
463.6,15006,464.0195,1119.46,-12799.9,13886.5,1086.65,3.26809e-91,9.76664e-49,2.17707e-37,178.892,0.640297,885.514,21.6022
463.3,15354,463.7195,1493.29,-12438.1,13860.7,1422.56,5.94371e-85,7.00162e-45,5.87029e-34,197.664,3.40631,1204.07,17.4227
463,15449,463.4195,1622.93,-12046.1,13826.1,1779.94,6.59635e-79,3.56274e-41,1.11185e-30,219.427,15.1395,1531.34,14.0338
462.7,15814,463.1195,2027.89,-11652.3,13786.1,2133.81,4.46705e-73,1.28677e-37,1.47923e-27,244.818,56.0772,1821.63,11.2897
462.4,16201,462.8195,2465.15,-11252.8,13735.9,2483.07,1.84586e-67,3.29873e-34,1.38237e-24,274.64,172.55,2026.81,9.0706
462.1,16602,462.5195,2923.33,-10812.9,13678.7,2865.82,4.65397e-62,6.00241e-31,9.07426e-22,309.912,439.351,2109.27,7.27835
461.8,17016,462.2195,3405.03,-10278.4,13611,3332.58,7.15954e-57,7.75238e-28,4.18408e-19,351.936,921.674,2053.14,5.83277
461.5,17401,461.9195,3868.18,-9670.91,13532.8,3861.91,6.72004e-52,7.10683e-25,1.35515e-16,402.374,1585.61,1869.26,4.66833
461.2,17647,461.6195,4199.55,-9161.97,13447.4,4285.48,3.84833e-47,4.62432e-22,3.08302e-14,463.35,2226.59,1591.8,3.73159
460.9,17632,461.3195,4277.27,-9005.54,13354.7,4349.18,1.34454e-42,2.13576e-19,4.92681e-12,537.56,2540.78,1267.86,2.979
460.6,17199,461.0195,3934.82,-9342.67,13264.2,3921.51,2.86593e-38,7.00142e-17,5.53037e-10,628.361,2346.23,944.546,2.37516
460.3,16507,460.7195,3318.81,-10041.6,13188.2,3146.61,3.72679e-34,1.62912e-14,4.36057e-08,739.786,1746.76,658.172,1.89129
460,15426,460.4195,2297.95,-10776.2,13128,2351.81,2.95646e-30,2.6906e-12,2.41509e-06,876.3,1045.04,428.965,1.50408
459.7,14816,460.1195,1729.55,-11280.8,13086.4,1805.69,1.43075e-26,3.15411e-10,9.39555e-05,1041.99,501.003,261.499,1.19461
459.4,14746,459.8195,1695.84,-11469.5,13050.2,1580.66,4.22377e-23,2.62444e-08,0.00256751,1238.6,192.002,149.103,0.947607
459.1,14494,459.5195,1477.91,-11415.4,13016.1,1600.71,7.60621e-20,1.54998e-06,0.0492835,1461.69,58.7004,79.518,0.750715
458.8,14673,459.2195,1690.95,-11232,12982,1750.03,8.35522e-17,6.49753e-05,0.664495,1694.82,14.2921,39.6655,0.593973
458.5,14839,458.9195,1896.79,-11009.6,12942.2,1932.62,5.59832e-14,0.00193331,6.29335,1904.58,2.76717,18.5065,0.469356
458.2,14878,458.6195,1979.33,-10803.7,12898.7,2094.99,2.288e-11,0.0408306,41.867,2044.21,0.42553,8.07615,0.370411
457.9,15183,458.3195,2328.88,-10581.4,12854.1,2272.69,5.70352e-09,0.61207,195.642,2072.8,0.0519193,3.29647,0.291951
457.6,15516,458.0195,2715.95,-10168.9,12800.1,2631.11,8.67177e-07,6.5125,642.174,1980.93,0.00502171,1.25852,0.229817
457.3,16112,457.7195,3376.72,-9407.27,12735.3,3328.01,8.04154e-05,49.1842,1480.62,1797.57,0.000384748,0.449405,0.180675
457,16901,457.4195,4246.73,-8422.34,12654.3,4231.93,0.00454807,263.654,2397.92,1570.06,2.33361e-05,0.1501,0.14186
456.7,17425,457.1195,4868.8,-7485.52,12556.2,5070.68,0.156878,1003.17,2727.88,1339.32,1.11988e-06,0.0468911,0.111241
456.4,18670,456.8195,6232.76,-6415.5,12437.2,6021.74,3.30014,2709.23,2179.8,1129.31,4.25011e-08,0.0137014,0.0871196
456.1,19488,456.5195,7196.52,-4882.95,12291.5,7408.53,42.3379,5193.36,1223.51,949.248,1.2751e-09,0.00374462,0.0681416
455.8,20408,456.2195,8284.66,-3443.87,12123.3,8679.47,331.24,7066.14,482.391,799.646,3.0231e-11,0.000957229,0.0532296
455.5,21489,455.9195,9556.17,-2717.52,11932.8,9215.32,1580.39,6824.13,133.595,677.158,5.66228e-13,0.00022887,0.0415278
455.2,22120,455.6195,10399.7,-1840.97,11720.3,9879.34,4598.16,4677.82,25.9885,577.338,8.37616e-15,5.11835e-05,0.0323571
454.9,21779,455.3195,10282.1,-563.285,11496.9,10933.6,8158.16,2275.99,3.55119,495.901,9.78392e-17,1.07062e-05,0.0251794
454.6,21287,455.0195,10008.6,-1236.55,11278.4,10041.9,8826.35,786.013,0.340852,429.167,9.02206e-19,2.09463e-06,0.0195689
454.3,18245,454.7195,7158.91,-4696.31,11086.1,6389.78,5822.93,192.672,0.0229804,374.142,6.56666e-21,3.83306e-07,0.0151891
454,13159,454.4195,2166.21,-8288.39,10992.8,2704.41,2342.42,33.5228,0.0010883,328.452,3.77188e-23,6.5607e-08,0.0117745
453.7,11715,454.1195,749.144,-10096.9,10965.9,868.953,574.57,4.13993,3.62029e-05,290.233,1.70956e-25,1.05032e-08,0.00911587
453.4,11510,453.8195,557.588,-10608.1,10952.4,344.333,85.9346,0.362891,8.45932e-07,258.028,6.1132e-28,1.57274e-09,0.00704853
453.1,11337,453.5195,394.385,-10704.1,10942.6,238.561,7.83669,0.0225783,1.38844e-08,230.696,1.72448e-30,2.20272e-10,0.00544307
452.8,11248,453.2195,313.225,-10727,10934.8,207.782,0.43574,0.000997095,1.60074e-10,207.341,3.83716e-33,2.88555e-11,0.00419793
452.5,11035,452.9195,104.97,-10742.8,10930,187.271,0.0147723,3.12546e-05,1.29633e-12,187.253,6.73413e-36,3.5356e-12,0.00323348
452.2,11078,452.6195,151.187,-10756.9,10926.8,169.872,0.00030534,6.9538e-07,7.37407e-15,169.869,9.32067e-39,4.05196e-13,0.00248743
451.9,11147,452.3195,223.52,-10768.7,10923.5,154.74,3.84795e-06,1.09815e-08,2.94646e-17,154.738,1.01729e-41,4.34342e-14,0.00191107
451.6,11161,452.0195,241.007,-10778.5,10920,141.498,2.9565e-08,1.23093e-10,8.26979e-20,141.497,8.75193e-45,4.35477e-15,0.00146638
451.3,11108,451.7195,191.491,-10786.7,10916.5,129.852,1.38491e-10,9.79341e-13,1.63038e-22,129.85,5.93685e-48,4.0838e-16,0.00112373
451,10914,451.4195,0,-10794.4,10914,119.559,3.95509e-13,5.53053e-15,2.25778e-25,119.558,3.04492e-51,3.58203e-17,0.000860045
450.7,11007,451.1195,93,-10803.6,10914,110.421,6.88611e-16,2.21682e-17,2.19622e-28,110.421,1.29006e-54,2.93874e-18,0.000657395
450.4,11067,450.8195,153,-10811.7,10914,102.276,7.30918e-19,6.30706e-20,1.50062e-31,102.276,0,2.25506e-19,0.000501853
450.3,11176,450.7195,262,-10814.2,10914,99.7572,6.67942e-20,8.28152e-21,1.22193e-32,99.7568,0,9.44146e-20,0.000458532