Folder: python_code_MXene_VRFB/XPS/LG4X-result (part 7)

File: MX-UT-0.1-3-C1s.csv
#No of rows lightened (2D detector)1(if not using 2D detector, value is 1 and can be ignored!)
raw_x,raw_y,corrected x,data-bg,sum_components,bg,sum_fit,C=C,pi-pi,pi-pi2,C-C,C-O,C_6,TiC
295.0,777.0,295.4017,46.0,-693.562,731.0,37.4384,13.1961,14.8473,0.0,0.443563,8.77304,0.0,0.178419
294.8,732.0,295.202,1.0,-690.92,731.0,40.0805,13.6942,16.5721,0.0,0.46137,9.16892,0.0,0.183872
294.6,810.0,295.002,79.0,-687.879,731.0,43.121,14.221,18.6381,0.0,0.480272,9.59209,0.0,0.18958
294.4,731.0,294.802,0.0,-684.34,731.0,46.6596,14.7787,21.1399,0.0,0.500362,10.0451,0.0,0.195557
294.2,826.0,294.602,95.4273,-679.747,730.573,50.8257,15.37,24.2013,0.0,0.521742,10.5308,0.0,0.201821
294.0,771.0,294.4017,40.8036,-674.412,730.196,55.7848,15.9975,27.982,0.0,0.544524,11.0524,0.0,0.208391
293.8,748.0,294.202,17.9916,-668.263,730.008,61.7454,16.6642,32.6836,0.0,0.568834,11.6136,0.0,0.215288
293.6,747.0,294.002,17.187,-660.851,729.813,68.9616,17.3735,38.5525,0.0,0.594812,12.2183,0.0,0.222532
293.4,789.0,293.802,59.4551,-651.814,729.545,77.7312,18.129,45.8782,0.0,0.622614,12.8712,0.0,0.230149
293.2,834.0,293.602,105.013,-640.603,728.987,88.3845,18.9349,54.9814,0.0,0.652416,13.5776,0.0,0.238163
293.0,809.0,293.4017,80.5451,-627.194,728.455,101.261,19.7958,66.1906,0.0,0.684414,14.3433,0.0,0.246603
292.8,782.0,293.202,54.1129,-611.218,727.887,116.669,20.7168,79.8027,0.0,0.71883,15.1752,0.0,0.2555
292.6,867.0,293.002,139.732,-592.435,727.268,134.834,21.7036,96.0283,0.0,0.755915,16.081,0.0,0.264887
292.4,898.0,292.802,171.736,-570.436,726.264,155.828,22.7627,114.925,0.0,0.795953,17.0698,0.0,0.274801
292.2,884.0,292.602,158.707,-545.79,725.293,179.503,23.9012,136.326,0.0,0.839266,18.1518,0.0,0.285283
292.0,919.0,292.4017,194.892,-518.68,724.108,205.428,25.1274,159.779,0.0,0.886222,19.339,0.0,0.296376
291.8,991.0,292.202,268.385,-489.763,722.615,232.852,26.4504,184.51,0.0,0.937244,20.6454,0.0,0.308128
291.6,1002.0,292.002,281.03,-460.259,720.97,260.711,27.8807,209.43,0.0,0.992815,22.0873,0.0,0.320594
291.4,1010.0,291.802,290.899,-431.411,719.101,287.69,29.4303,233.189,0.0,1.0535,23.684,0.0,0.333832
291.2,1038.0,291.602,320.802,-404.865,717.198,312.333,31.1129,254.295,0.0,1.11993,25.458,0.0,0.347907
291.0,1073.0,291.4017,357.964,-381.833,715.036,333.204,32.944,271.268,0.0,1.19288,27.4363,0.0,0.362891
290.8,1070.0,291.202,357.301,-363.633,712.699,349.066,34.9417,282.821,0.0,1.27323,29.6509,0.0,0.378865
290.6,1078.0,291.002,367.773,-351.169,710.227,359.058,37.1268,288.033,0.0,1.362,32.1404,0.0,0.395917
290.4,1051.0,290.802,342.992,-345.183,708.008,362.825,39.5236,286.475,0.0,1.46044,34.9515,0.0,0.414146
290.2,1037.0,290.602,331.068,-345.35,705.932,360.582,42.1604,278.277,0.0,1.57,38.1408,0.0,0.433664
290.0,1056.0,290.4017,352.292,-350.609,703.708,353.099,45.0701,264.104,0.0,1.69244,41.7778,0.0,0.454596
289.8,1025.0,290.202,323.288,-360.1,701.712,341.612,48.2919,245.065,0.0,1.82986,45.9481,0.0,0.47708
289.6,1037.0,290.002,337.404,-371.923,699.596,327.673,51.872,222.557,0.0,1.98482,50.7585,0.0,0.501274
289.4,1001.0,289.802,303.301,-384.716,697.699,312.983,55.8656,198.087,0.0,2.16048,56.3427,0.0,0.527356
289.2,972.0,289.602,276.148,-396.627,695.852,299.225,60.3386,173.1,0.0,2.36071,62.8698,0.0,0.555529
289.0,992.0,289.4017,298.028,-406.033,693.972,287.939,65.3707,148.836,0.0,2.59036,70.5556,0.0,0.586021
288.8,945.0,289.202,252.825,-411.717,692.175,280.457,71.0585,126.246,0.0,2.85554,79.6781,0.0,0.619094
288.6,975.0,289.002,284.56,-412.55,690.44,277.89,77.5199,105.953,0.0,3.16405,90.5983,0.0,0.655047
288.4,989.0,288.802,300.35,-407.468,688.65,281.182,84.9,88.2728,0.0,3.52601,103.789,0.0,0.694226
288.2,1044.0,288.602,357.277,-395.519,686.723,291.205,93.3781,73.2608,0.0,3.95468,119.874,0.0,0.737029
288.0,1008.0,288.4017,323.516,-375.593,684.484,308.891,103.178,60.7808,0.0,4.46779,139.68,0.0,0.783915
287.8,1083.0,288.202,400.841,-346.775,682.159,335.384,114.58,50.575,0.0,5.08948,164.304,0.0,0.835421
287.6,1079.0,288.002,399.285,-307.517,679.715,372.199,127.941,42.326,0.0,5.85341,195.186,0.0,0.892176
287.4,1153.0,287.802,476.058,-255.584,676.942,421.358,143.716,35.7051,0.0,6.80775,234.174,0.0,0.954917
287.2,1178.0,287.602,504.172,-188.378,673.828,485.45,162.493,30.4037,0.0,8.02367,283.505,0.0,1.02452
287.0,1254.0,287.4017,583.733,-102.836,670.267,567.431,185.047,26.1513,0.0,9.61069,345.52,0.0,1.10201
286.8,1329.0,287.202,662.55,3.37267,666.45,669.822,212.413,22.722,0.0,11.7465,421.753,0.0,1.18864
286.6,1449.0,287.002,787,130.722,662,792.721,246.005,19.9341,0.0,14.7424,510.754,0.0,1.28591
286.4,1590.0,286.802,933.59,274.004,656.41,930.415,287.809,17.6452,0.0,19.2169,604.348,0.0,1.39562
286.2,1649.0,286.602,998.714,418.606,650.286,1068.89,340.712,15.7455,0.0,26.6502,684.264,0.0,1.51999
286.0,1812.0,286.4017,1168.58,548.332,643.418,1191.75,409.074,14.1515,0.0,41.242,725.621,0.0,1.66176
285.8,1962.0,286.202,1326.55,665.939,635.452,1301.39,499.82,12.7999,0.0,75.0993,711.847,0.0,1.82433
285.6,2124.0,286.002,1497.18,817.602,626.819,1444.42,624.618,11.6424,0.0,157.395,648.753,0.0,2.01198
285.4,2305.0,285.802,1688.16,1096.31,616.842,1713.15,804.666,10.6423,0.0,336.33,559.283,0.0,2.23014
285.2,2797.0,285.602,2192.36,1601.39,604.639,2206.03,1082.43,9.77117,0.0,645.041,466.3,0.0,2.4858
285.0,3345.0,285.4017,2756.08,2387.98,588.92,2976.9,1555.35,9.00692,0.0,1026.77,382.989,0.0,2.78808
284.8,4586.0,285.202,4018.56,3559.67,567.439,4127.11,2495.61,8.3321,0.0,1306.3,313.725,0.0,3.14905
284.6,7339.0,285.002,6805.29,5878.35,533.709,6412.06,4833.63,7.7328,0.0,1308.98,258.136,0.0,3.58493
284.4,12716.0,284.802,12241.2,11720,474.825,12194.9,10936.4,7.1978,0.0,1032.98,214.119,0.0,4.11799
284.2,20094.0,284.602,19721.3,19561.6,372.667,19934.3,19092.2,6.71795,0.0,651.271,179.32,0.0,4.77941
284.0,18010.0,284.4017,17761.5,17215.6,248.529,17464.2,16960.1,6.28572,0.0,340.482,151.678,0.0,5.61397
283.8,8055.0,284.202,7887.32,7764.12,167.682,7931.8,7630.19,5.89485,0.0,159.48,129.547,0.0,6.68779
283.6,2738.0,284.002,2601.02,2682.79,136.978,2819.77,2618.48,5.5401,0.0,75.9788,111.665,0.0,8.10189
283.4,1346.0,283.802,1220.38,1069.77,125.617,1195.38,1041.47,5.21708,0.0,41.6037,97.0726,0.0,10.0168
283.2,786.0,283.602,666.137,507.399,119.863,627.261,497.769,4.92202,0.0,26.8196,85.0507,0.0,12.6999
283.0,525.0,283.4017,408.411,263.019,116.589,379.608,263.966,4.65173,0.0,19.3121,75.0538,0.0,16.6243
282.8,419.0,283.202,304.598,142.412,114.402,256.814,148.249,4.40347,0.0,14.8036,66.6674,0.0,22.691
282.6,356.0,283.002,243.399,81.7679,112.601,194.369,86.04,4.17487,0.0,11.7891,59.574,0.0,32.7907
282.4,301.0,282.802,189.767,58.1997,111.233,169.433,50.8593,3.96388,0.0,9.64177,53.528,0.0,51.4396
282.2,334.0,282.602,224.115,72.0306,109.885,181.916,30.3335,3.7687,0.0,8.04716,48.3378,0.0,91.4285
282.0,381.0,282.4017,272.668,158.144,108.332,266.476,18.136,3.58777,0.0,6.82599,43.8527,0.0,194.074
281.8,588.0,282.202,481.899,389.019,106.101,495.12,10.8192,3.41973,0.0,5.86788,39.9529,0.0,435.06
281.6,748.0,282.002,645.604,558.889,102.396,661.285,6.41743,3.26336,0.0,5.10117,36.5427,0.0,609.961
281.4,608.0,281.802,509.356,340.567,98.6441,439.211,3.77448,3.11759,0.0,4.47737,33.5447,0.0,394.297
281.2,295.0,281.602,198.414,116.393,96.5861,212.979,2.19662,2.98147,0.0,3.96264,30.8959,0.0,172.942
281.0,194.0,281.4017,98.2893,24.0632,95.7107,119.774,1.26271,2.85417,0.0,3.5327,28.545,0.0,83.5793
280.8,173.0,281.202,77.8491,-14.0681,95.1509,81.0828,0.715963,2.73493,0.0,3.16973,26.4494,0.0,48.0127
280.6,132.0,281.002,37.2027,-33.3184,94.7973,61.479,0.399948,2.62308,0.0,2.86039,24.5739,0.0,31.0217
280.4,140.0,280.802,45.455,-44.6593,94.545,49.8857,0.219894,2.51801,0.0,2.59455,22.889,0.0,21.6642
280.2,133.0,280.602,38.6852,-52.0655,94.3148,42.2492,0.118893,2.41918,0.0,2.36435,21.3699,0.0,15.9769
280.0,117.0,280.4017,22.8581,-57.3272,94.1419,36.8148,0.063171,2.32611,0.0,2.16367,19.9959,0.0,12.2659
279.8,135.0,280.202,41.0447,-61.2354,93.9553,32.7199,0.0329631,2.23834,0.0,1.98763,18.7492,0.0,9.7118
279.6,120.0,280.002,26.2691,-64.232,93.7309,29.4989,0.016883,2.15549,0.0,1.83234,17.6146,0.0,7.87953
279.4,131.0,279.802,37.4726,-66.6471,93.5274,26.8803,0.0084836,2.07719,0.0,1.69464,16.5793,0.0,6.5207
279.2,114.0,279.602,20.633,-68.6705,93.367,24.6964,0.00418055,2.00311,0.0,1.57197,15.6319,0.0,5.48525
279.0,135.0,279.4017,41.8357,-70.326,93.1643,22.8383,0.00201952,1.93294,0.0,1.46221,14.763,0.0,4.67816
278.8,101.0,279.202,8.0,-71.768,93.0,21.232,0.000956054,1.86643,0.0,1.36359,13.9641,0.0,4.03692
278.6,99.0,279.002,6.0,-73.1746,93.0,19.8254,0.00044341,1.80331,0.0,1.27466,13.228,0.0,3.51902
278.4,104.0,278.802,11.0,-74.4193,93.0,18.5807,0.00020142,1.74335,0.0,1.19418,12.5482,0.0,3.09473
278.2,112.0,278.602,19.0,-75.5303,93.0,17.4697,8.95918e-05,1.68636,0.0,1.12112,11.9193,0.0,2.7428
278.0,126.0,278.4017,33.0,-76.5294,93.0,16.4706,3.90129e-05,1.63213,0.0,1.05457,11.3362,0.0,2.44765
277.8,102.0,278.202,9.0,-77.4332,93.0,15.5668,1.66279e-05,1.58049,0.0,0.993802,10.7948,0.0,2.1977
277.6,102.0,278.002,9.0,-78.2554,93.0,14.7446,6.93548e-06,1.53127,0.0,0.938149,10.291,0.0,1.98416
277.4,101.0,277.802,8.0,-79.0068,93.0,13.9932,2.83044e-06,1.48433,0.0,0.887055,9.82149,0.0,1.8003
277.3,98.0,277.702,5.0,-79.3588,93.0,13.6412,1.79339e-06,1.46167,0.0,0.863062,9.59866,0.0,1.71781

File: MX-UT-0.1-3-Ti2p.csv
#No of rows lightened (2D detector)1(if not using 2D detector, value is 1 and can be ignored!)
raw_x,raw_y,corrected x,data-bg,sum_components,bg,sum_fit,TiC,Ti 2+,Ti 3+,C_4,C_5,C_6,Ti 4+,C_8
470.0,14476.0,470.4017,520.0,-13871.5,13956.0,84.4889,10.672,31.6184,15.2465,12.4618,7.10076,4.1203,1.21343,2.05573
469.7,14494.0,470.102,538.0,-13867.1,13956.0,88.9399,11.0914,32.9318,15.9231,13.3164,7.64891,4.48927,1.27742,2.26159
469.4,14243.0,469.8017,287.0,-13862.2,13956.0,93.7923,11.5359,34.3288,16.6458,14.262,8.2631,4.91017,1.34661,2.49992
469.1,14446.0,469.5017,490.0,-13856.9,13956.0,99.1021,12.0076,35.8165,17.4189,15.312,8.95439,5.3932,1.42157,2.77789
468.8,14333.0,469.202,377.0,-13851.1,13956.0,104.937,12.509,37.403,18.247,16.4824,9.73623,5.95126,1.50296,3.10478
468.5,14336.0,468.9017,380.0,-13844.6,13956.0,111.377,13.0423,39.0972,19.1355,17.7923,10.6252,6.60073,1.59154,3.49274
468.2,14410.0,468.602,454.0,-13837.5,13956.0,118.525,13.6105,40.909,20.0906,19.2648,11.6417,7.36276,1.68819,3.9579
467.9,14060.0,468.3017,104.0,-13829.5,13956.0,126.506,14.2166,42.8496,21.119,20.9279,12.8116,8.26497,1.79391,4.52208
467.6,14323.0,468.0017,367.0,-13820.5,13956.0,135.476,14.8641,44.9316,22.2283,22.8161,14.1671,9.34404,1.90987,5.21532
467.3,14347.0,467.702,391.0,-13810.4,13956.0,145.642,15.5569,47.1688,23.4273,24.9718,15.75,10.6495,2.03743,6.07989
467.0,14406.0,467.4017,450.0,-13798.7,13956.0,157.269,16.2992,49.5773,24.726,27.4481,17.6139,12.2495,2.1782,7.17667
466.7,14114.0,467.102,158.0,-13785.3,13956.0,170.718,17.0959,52.1748,26.1356,30.3119,19.8296,14.24,2.33407,8.5958
466.4,14230.0,466.8017,274.0,-13769.5,13956.0,186.485,17.9525,54.9817,27.6692,33.6484,22.4918,16.7596,2.50726,10.4749
466.1,14149.0,466.5017,193.0,-13750.7,13956.0,205.281,18.875,58.021,29.3418,37.5677,25.729,20.0146,2.70045,13.0314
465.8,14240.0,466.202,284.0,-13727.8,13956.0,228.156,19.8705,61.3192,31.1706,42.2137,29.7199,24.3227,2.91682,16.6225
465.5,14196.0,465.9017,240.86,-13698.4,13955.1,256.738,20.9467,64.9063,33.1758,47.778,34.7182,30.1945,3.16024,21.858
465.2,14305.0,465.602,354.809,-13656.5,13950.2,293.664,22.1128,68.8173,35.3806,54.5193,41.0943,38.494,3.4354,29.8101
464.9,14191.0,465.3017,246.146,-13601.5,13944.9,343.353,23.379,73.092,37.8126,62.7946,49.4064,50.7777,3.74806,42.343
464.6,14440.0,465.0017,502.77,-13524.1,13937.2,413.119,24.757,77.7771,40.5039,73.1068,60.5268,70.0835,4.10533,62.2585
464.3,14676.0,464.702,750.445,-13411.7,13925.6,513.875,26.2603,82.9266,43.4927,86.1831,75.8814,102.94,4.51612,91.6753
464.0,14528.0,464.4017,616.046,-13251.9,13912,660.096,27.9048,88.604,46.8246,103.106,97.93,164.631,4.99163,126.104
463.7,14872.0,464.102,977.974,-13018.3,13894,875.711,29.7086,94.8837,50.554,125.543,131.207,289.096,5.54617,149.173
463.4,15102.0,463.8017,1231.56,-12671.1,13870.4,1199.32,31.6929,101.854,54.7466,156.171,184.766,519.623,6.19821,144.266
463.1,15513.0,463.5017,1675.15,-12228.2,13837.9,1609.7,33.8826,109.619,59.4825,199.496,278.256,806.738,6.97194,115.255
462.8,15769.0,463.202,1968.62,-11851.4,13800.4,1949.01,36.307,118.305,64.8593,263.554,455.249,921.622,7.89949,81.2141
462.5,16164.0,462.9017,2410.74,-11558.8,13753.3,2194.48,39.0008,128.062,70.998,363.673,791.651,737.219,9.02426,54.8538
462.2,16472.0,462.602,2772.99,-11101.6,13699,2597.45,42.0056,139.073,78.0494,531.022,1310.47,448.764,10.406,37.6514
461.9,16811.0,462.302,3176.52,-10479,13634.5,3155.46,45.3708,151.56,86.2031,829.727,1755.76,247.844,12.1289,26.8592
461.6,17394.0,462.002,3833.68,-9991.57,13560.3,3568.75,49.1565,165.798,95.7009,1367.4,1712.14,144.301,14.3138,19.9397
461.3,17469.0,461.702,3992.3,-9587.79,13476.7,3888.91,53.4357,182.123,106.854,2195.11,1226.47,92.4534,17.1399,15.3228
461.0,17795.0,461.4017,4409.26,-9178.6,13385.7,4207.14,58.2978,200.957,120.068,3002.85,727.872,64.1041,20.8804,12.1162
460.7,17491.0,461.102,4197.78,-9222.45,13293.2,4070.77,63.8533,222.826,135.881,3144.89,420.481,47.0606,25.9671,9.80843
460.4,16619.0,460.802,3406.79,-9920.45,13212.2,3291.76,70.2405,248.396,155.013,2480.59,260.287,36.027,33.1084,8.09648
460.1,15775.0,460.502,2629.36,-10756.6,13145.6,2389,77.6334,278.513,178.444,1600.82,174.81,28.4735,43.5131,6.7934
459.8,14844.0,460.202,1745.14,-11309.9,13098.9,1788.91,86.2541,314.261,207.528,967.512,125.195,23.0742,59.3063,5.77955
459.5,14727.0,459.9017,1664.84,-11555.8,13062.2,1506.39,96.3894,357.043,244.158,606.52,94.0351,19.0801,84.1855,4.97573
459.2,14608.0,459.602,1580.99,-11594.6,13027,1432.37,108.415,408.698,291.026,406.914,73.2165,16.0418,123.733,4.32797
458.9,14611.0,459.302,1617.14,-11498.8,12993.9,1495.01,122.828,471.664,352.018,290.13,58.6239,13.6767,182.275,3.79849
458.6,14876.0,459.002,1920.16,-11302.2,12955.8,1653.62,140.304,549.24,432.856,216.889,48.0005,11.7993,251.172,3.36026
458.3,15077.0,458.702,2163.54,-11044.1,12913.5,1869.39,161.769,645.987,542.181,168.148,40.0262,10.284,297.999,2.99351
458.0,14963.0,458.4017,2093.08,-10750.7,12869.9,2119.21,188.527,768.382,693.397,134.132,33.8877,9.04322,289.155,2.68354
457.7,15450.0,458.102,2630.85,-10382.5,12819.1,2436.62,222.458,925.926,907.646,109.471,29.0614,8.01443,231.62,2.41923
457.4,15809.0,457.802,3050.77,-9852.92,12758.2,2905.32,266.345,1133.06,1216.91,91.0291,25.1982,7.15187,163.429,2.19206
457.1,16689.0,457.502,4005.26,-9071.08,12683.7,3612.66,324.448,1412.61,1657.85,76.8809,22.0575,6.42154,110.396,1.99539
456.8,17319.0,457.202,4728.53,-7993.75,12590.5,4596.72,403.53,1801.9,2222.67,65.7909,19.4699,5.79772,75.7361,1.824
456.5,18142.0,456.9017,5662.28,-6728.25,12479.7,5751.47,514.817,2363.37,2738.1,56.9376,17.3125,5.26064,53.9919,1.67376
456.2,19230.0,456.602,6888.22,-5515.46,12341.8,6826.31,677.927,3198.18,2838.56,49.7578,15.495,4.79492,40.0583,1.54131
455.9,20272.0,456.302,8090.18,-4398.25,12181.8,7783.57,929.303,4433.93,2325.95,43.8549,13.9495,4.38845,30.7677,1.42397
455.6,21115.0,456.002,9115.49,-3048.83,11999.5,8950.68,1341.55,6027.18,1500.72,38.9433,12.6243,4.03159,24.3188,1.31952
455.3,21873.0,455.702,10079.6,-1723.19,11793.4,10070.2,2069.86,7123.76,805.714,34.8128,11.4795,3.71658,19.6801,1.22614
455.0,21996.0,455.4017,10425.1,-1376.96,11570.9,10193.9,3445.83,6295.13,390.327,31.3062,10.4836,3.43711,16.2405,1.14232
454.7,21680.0,455.102,10328.9,-1259.56,11351.1,10091.5,5731.82,4122.3,181.584,28.3039,9.61203,3.18803,13.6234,1.06681
454.4,19868.0,454.802,8725.19,-2577.86,11142.8,8564.95,6120.89,2310.7,83.2463,25.7136,8.8448,2.96509,11.5879,0.998537
454.1,14305.0,454.502,3292.71,-7763.53,11012.3,3248.76,1910.51,1255.25,37.6857,23.4633,8.16593,2.76475,9.97449,0.936609
453.8,11879.0,454.202,907.23,-10077,10971.8,894.729,144.525,692.264,16.7433,21.496,7.56234,2.58406,8.67464,0.880264
453.5,11625.0,453.9017,668.211,-10518.5,10956.8,438.314,3.30845,390.106,7.24857,19.7661,7.0233,2.42053,7.61237,0.828852
453.2,11364.0,453.602,418.482,-10684.4,10945.5,261.098,0.024014,223.471,3.03899,18.2369,6.53992,2.27205,6.73333,0.781812
452.9,11296.0,453.302,358.826,-10774.9,10937.2,162.309,5.35434e-05,129.224,1.22775,16.8785,6.10479,2.13682,5.99779,0.738664
452.6,11113.0,453.002,181.946,-10826.2,10931.1,104.899,3.54433e-08,74.9567,0.476072,15.6665,5.7117,2.01333,5.37622,0.698989
452.3,11051.0,452.702,123.207,-10856.9,10927.8,70.9093,6.79261e-12,43.3879,0.176623,14.5804,5.35539,1.90024,4.84629,0.662426
452.0,11063.0,452.4017,138.229,-10874.3,10924.8,50.4718,0.0,24.9584,0.0625355,13.6035,5.03142,1.79642,4.39087,0.628656
451.7,10977.0,452.102,55.9471,-10883.1,10921.1,37.994,0.0,14.2204,0.0210866,12.7216,4.73599,1.70088,3.99665,0.597403
451.4,10929.0,451.802,11.7655,-10887,10917.2,30.2333,0.0,8.00362,0.00675992,11.9228,4.46584,1.61277,3.65314,0.568423
451.1,10957.0,451.502,43.0,-10888.7,10914.0,25.2821,0.0,4.44014,0.00205738,11.1969,4.21817,1.53134,3.35202,0.541501
450.8,11033.0,451.202,119.0,-10892,10914.0,22.009,0.0,2.42359,0.000593745,10.5353,3.99054,1.45592,3.08661,0.516446
450.5,11078.0,450.9017,164.0,-10894.3,10914.0,19.7419,0.0,1.29966,0.000162315,9.93068,3.78086,1.38594,2.85148,0.49309
450.2,11095.0,450.602,181.0,-10895.9,10914.0,18.0822,0.0,0.683844,4.1996e-05,9.37665,3.58729,1.32089,2.64219,0.471283
450.0,11032.0,450.4017,118.0,-10896.8,10914.0,17.1926,0.0,0.440792,1.65322e-05,9.03266,3.46638,1.28003,2.5152,0.457538

File: MX-UT-0.1-C1s.csv
#No of rows lightened (2D detector)1(if not using 2D detector, value is 1 and can be ignored!)
raw_x,raw_y,corrected x,data-bg,sum_components,bg,sum_fit,C=C,pi-pi*,pi-pi*2,C-C,C-O,C=O,O-C=O,TiC
295.0,46.0,295.4255,46.0,48.2141,0.0,48.2141,16.9615,0.0339524,19.4953,8.96982,6.85683e-169,1.26411,1.44719,0.0422906
294.7,8.0,295.126,8.0,53.603,0.0,53.603,17.9311,0.120593,23.0073,9.53265,2.07454e-157,1.37079,1.59629,0.0442493
294.4,0.0,294.826,0.0,58.3956,0.0,58.3956,18.9863,0.389052,25.5621,10.1506,2.49438e-146,1.49169,1.76951,0.0463473
294.1,50.6587,294.525,50.6587,62.3515,0.0,62.3515,20.1375,1.14006,26.5923,10.8312,1.19191e-135,1.6295,1.97232,0.0485982
293.8,17.9916,294.225,17.9916,65.9161,0.0,65.9161,21.3967,3.03448,25.8513,11.5834,2.26343e-125,1.78754,2.21178,0.0510171
293.5,46.2876,293.9255,46.2876,70.5699,0.0,70.5699,22.7777,7.33627,23.5175,12.4176,1.70817e-115,1.97004,2.4972,0.0536213
293.2,105.013,293.626,105.013,78.9516,0.0,78.9516,24.297,16.1102,20.1183,13.3462,5.12315e-106,2.18239,2.84101,0.0564301
292.9,111.85,293.326,111.85,94.5634,0.0,94.5634,25.9734,32.1337,16.3207,14.3845,6.10639e-97,2.43157,3.26004,0.0594656
292.6,139.732,293.025,139.732,120.871,0.0,120.871,27.8296,58.2179,12.7055,15.5504,2.8925e-88,2.72679,3.7776,0.0627529
292.3,141.232,292.725,141.232,159.769,0.0,159.769,29.8922,95.8046,9.63294,16.8663,5.44506e-80,3.08035,4.42656,0.0663206
292.0,194.892,292.4255,194.892,209.817,0.0,209.817,32.1928,143.203,7.22815,18.3593,4.07356e-72,3.50908,5.25436,0.0702015
291.7,244.197,292.126,244.197,265.148,0.0,265.148,34.7697,194.424,5.44872,20.0634,1.21112e-64,4.03642,6.33127,0.0744333
291.4,290.899,291.826,290.899,316.167,0.0,316.167,37.6689,239.764,4.1731,22.0212,1.43101e-57,4.69591,7.76431,0.0790598
291.1,342.853,291.525,342.853,352.41,0.0,352.41,40.9465,268.568,3.26736,24.2867,6.7195e-51,5.53667,9.72148,0.0841317
290.8,357.301,291.225,357.301,366.665,0.0,366.665,44.6714,273.248,2.61904,26.9297,1.25393e-44,6.63225,12.4748,0.0897079
290.5,344.902,290.9255,344.902,358.303,0.0,358.303,48.9287,252.52,2.14586,30.0415,9.29935e-39,8.09402,16.4772,0.0958576
290.2,331.068,290.626,331.068,334.012,0.0,334.012,53.825,211.968,1.79197,33.743,2.74077e-33,10.0896,22.4919,0.102662
289.9,292.313,290.326,292.313,305.556,0.0,305.556,59.495,161.614,1.52066,38.1981,3.21021e-28,12.8621,31.7567,0.110219
289.6,337.404,290.025,337.404,285.705,0.0,285.705,66.1108,111.923,1.3079,43.632,1.49429e-23,16.737,45.8753,0.118641
289.3,293.246,289.725,293.246,283.008,0.0,283.008,73.8951,70.4042,1.13776,50.3591,2.76427e-19,22.0895,64.9945,0.128068
289.0,298.028,289.4255,298.028,294.807,0.0,294.807,83.1402,40.2264,0.999381,58.8229,2.0322e-15,29.2368,82.2422,0.138666
288.7,278.668,289.126,278.668,307.72,0.0,307.72,94.236,20.8765,0.885208,69.65,5.93734e-12,38.2374,83.6842,0.150636
288.4,300.35,288.826,300.35,318.704,0.0,318.704,107.712,9.84103,0.789824,83.7141,6.89383e-09,48.6419,67.8409,0.164228
288.1,366.423,288.525,366.423,339.249,0.0,339.249,124.301,4.21364,0.709267,102.197,3.18105e-06,59.3243,48.3237,0.179746
287.8,400.841,288.225,400.841,376.124,0.0,376.124,145.042,1.63874,0.64058,126.611,0.000583339,68.5704,33.4222,0.197575
287.5,437.611,287.9255,437.611,429.674,0.0,429.674,171.448,0.578889,0.581515,158.725,0.0425122,74.5118,23.5688,0.218197
287.2,504.172,287.626,504.172,501.252,0.0,501.252,205.785,0.185745,0.530338,200.312,1.23125,75.7827,17.1824,0.242228
286.9,581.579,287.326,581.579,604.268,0.0,604.268,251.586,0.0541344,0.485691,252.673,14.1717,72.0752,12.9511,0.270463
286.6,787,287.025,787,770.426,0.0,770.426,314.592,0.0143306,0.446499,315.919,64.8245,64.2721,10.0543,0.303947
286.3,966.6,286.725,966.6,973.5,0.0,973.5,404.64,0.0034458,0.411903,388.181,117.841,54.0738,8.00422,0.344066
286.0,1168.58,286.4255,1168.58,1140.49,0.0,1140.49,539.702,0.000752576,0.381205,465.024,85.1327,43.346,6.50912,0.3927
285.7,1312.73,286.126,1312.73,1358.72,0.0,1358.72,755.091,0.000149295,0.353837,539.448,24.442,33.5429,5.38945,0.452448
285.4,1688.16,285.826,1688.16,1762.77,0.0,1762.77,1126.4,2.69014e-05,0.329332,602.749,2.78881,25.4452,4.53137,0.526979
285.1,2486.77,285.525,2486.77,2506.81,0.0,2506.81,1836.46,4.40292e-06,0.307301,646.217,0.126457,19.2197,3.86044,0.621621
284.8,4018.56,285.225,4018.56,4123.93,0.0,4123.93,3441.67,6.54546e-07,0.287421,663.244,0.00227881,14.6489,3.32657,0.744346
284.5,9060.43,284.9255,9060.43,8952.36,0.0,8952.36,8285.82,8.83842e-08,0.269419,651.109,1.63198e-05,11.3675,2.89521,0.90752
284.2,19721.3,284.626,19721.3,19728,0.0,19728,19103.3,1.08404e-08,0.253064,611.758,4.64475e-08,9.01714,2.54192,1.1312
283.9,12690.7,284.326,12690.7,12714.5,0.0,12714.5,12152,1.20767e-09,0.238161,551.245,5.25353e-11,7.31232,2.24908,1.44968
283.6,2601.02,284.025,2601.02,2611.53,0.0,2611.53,2123.25,1.22204e-10,0.224543,478.072,2.36147e-14,6.04964,2.00375,1.92583
283.3,872.699,283.725,872.699,740.615,0.0,740.615,329.746,1.12321e-11,0.212064,401.084,4.21846e-18,5.09198,1.79624,2.68558
283.0,408.411,283.4255,408.411,393.64,0.0,393.64,55.8018,9.3771e-13,0.200601,327.655,2.9948e-22,4.34878,1.6192,4.01486
282.7,294.547,283.126,294.547,283.564,0.0,283.564,8.76929,7.11069e-14,0.190047,262.679,8.44932e-27,3.76001,1.46697,6.69811
282.4,189.767,282.826,189.767,228.227,0.0,228.227,1.17938,4.89767e-15,0.180306,208.431,9.47367e-32,3.28518,1.33515,13.8158
282.1,241.853,282.525,241.853,223.182,0.0,223.182,0.130203,3.0641e-16,0.171298,165.081,4.22139e-37,2.89629,1.22026,53.6832
281.8,481.899,282.225,481.899,472.849,0.0,472.849,0.0115166,1.74121e-17,0.162951,131.477,7.4754e-43,2.57353,1.11953,337.504
281.5,606.588,281.9255,606.588,609.98,0.0,609.98,0.000803584,8.98736e-19,0.155201,105.883,5.26084e-49,2.30252,1.03073,500.608
281.2,198.414,281.626,198.414,208.5,0.0,208.5,4.37698e-05,4.21356e-20,0.147992,86.5069,1.47135e-55,2.07265,0.952062,118.821
280.9,88.5854,281.326,88.5854,95.748,0.0,95.748,1.84714e-06,1.79433e-21,0.141276,71.7842,1.63538e-62,1.87591,0.88204,21.0646
280.6,37.2027,281.025,37.2027,71.7665,0.0,71.7665,6.00633e-08,6.94046e-23,0.135008,60.4763,7.22378e-70,1.70617,0.819448,8.62959
280.3,30.5755,280.725,30.5755,58.9579,0.0,58.9579,1.49859e-09,2.43843e-24,0.129149,51.6608,1.26809e-77,1.55866,0.763272,4.84602
280.0,22.8581,280.4255,22.8581,50.0629,0.0,50.0629,2.85963e-11,7.78155e-26,0.123664,44.674,8.84663e-86,1.42963,0.712667,3.12291
279.7,37.1686,280.126,37.1686,43.332,0.0,43.332,4.16891e-13,2.25557e-27,0.118521,39.0455,2.45271e-94,1.3161,0.666922,2.18502
279.4,37.4726,279.826,37.4726,38.0129,0.0,38.0129,5.21182e-15,5.93858e-29,0.113694,34.4419,2.70244e-103,1.21567,0.625435,1.61617
279.1,32.7176,279.525,32.7176,33.693,0.0,33.693,0.0,1.42018e-30,0.109157,30.6252,1.18334e-112,1.12637,0.587694,1.24456
278.8,8.0,279.225,8.0,30.1158,0.0,30.1158,0.0,3.08489e-32,0.104886,27.4228,2.05921e-122,1.04663,0.553263,0.988231
278.5,18.0,278.9255,18.0,27.1088,0.0,27.1088,0.0,6.08652e-34,0.100861,24.7072,1.42408e-132,0.975101,0.521766,0.80386
278.2,19.0,278.626,19.0,24.5503,0.0,24.5503,0.0,1.09077e-35,0.0970645,22.3829,3.91391e-143,0.910701,0.492879,0.666773
277.9,10.0,278.326,10.0,22.3514,0.0,22.3514,0.0,1.77556e-37,0.0934784,20.377,4.27493e-154,0.852507,0.466323,0.562049
277.6,9.0,278.025,9.0,20.445,0.0,20.445,0.0,2.62524e-39,0.0900878,18.6331,1.85561e-165,0.799741,0.441853,0.480233
277.3,5.0,277.725,5.0,18.7797,0.0,18.7797,0.0,3.52564e-41,0.0868787,17.1068,3.20101e-177,0.751748,0.419258,0.415089