Folder: python_code_MXene_VRFB/XPS/LG4X-result (part 12)

File: MX-UT-0.5-C1s.csv
#No of rows lightened (2D detector)1(if not using 2D detector, value is 1 and can be ignored!)
raw_x,raw_y,corrected x,data-bg,sum_components,bg,sum_fit,bg_shirley_,C=C,pi-pi*,pi-pi*2,C-C,C-O,C=O,O-C=O,TiC
294.7,12.0,295.354,11.9441,33.114,0.0559388,33.1699,0.0559388,16.6221,0.140577,4.02635,10.5457,4.5902e-05,0.942965,0.828507,0.00781989
294.4,39.1032,295.054,39.0473,44.0074,0.0559387,44.0633,0.0559387,17.5792,0.404921,12.855,11.2116,4.92638e-05,1.02692,0.921641,0.00818387
294.1,112.714,294.754,112.658,82.8873,0.0559379,82.9432,0.0559379,18.6214,1.07936,49.0808,11.9431,5.30097e-05,1.12256,1.03149,0.00857388
293.8,92.5189,294.454,92.463,80.4963,0.0559366,80.5523,0.0559366,19.7591,2.66259,42.9219,12.7493,5.72009e-05,1.23214,1.16235,0.00899245
293.5,51.086,294.1537,51.0301,53.9157,0.0559356,53.9717,0.0559356,21.0043,6.07828,10.5044,13.6407,6.1911e-05,1.35849,1.31995,0.00944245
293.2,90.6935,293.854,90.6376,56.4329,0.0559348,56.4888,0.0559348,22.3711,12.841,3.56341,14.63,6.72297e-05,1.50518,1.51219,0.0099271
292.9,93.4289,293.554,93.373,69.9364,0.0559336,69.9923,0.0559336,23.8758,25.1047,1.78629,15.7322,7.32668e-05,1.67681,1.75009,0.0104501
292.6,108.171,293.254,108.115,92.9388,0.0559325,92.9948,0.0559325,25.5376,45.4206,1.07552,16.9652,8.01583e-05,1.8793,2.04952,0.0110155
292.3,153.269,292.954,153.213,127.064,0.0559309,127.12,0.0559309,27.3792,76.0484,0.719144,18.351,8.80742e-05,2.12047,2.43393,0.0116281
292.0,195.783,292.6537,195.727,173.054,0.0559286,173.11,0.0559286,29.4274,117.833,0.514897,19.9163,9.72289e-05,2.41072,2.93929,0.0122933
291.7,193.619,292.354,193.563,229.156,0.0559257,229.212,0.0559257,31.7143,168.961,0.386912,21.6938,0.000107897,2.76414,3.62304,0.0130173
291.4,273.701,292.054,273.645,290.305,0.0559227,290.361,0.0559227,34.2786,224.205,0.3014,23.7246,0.000120432,3.20022,4.58143,0.0138072
291.1,362.743,291.754,362.687,348.537,0.0559181,348.593,0.0559181,37.167,275.323,0.241431,26.0599,0.000135301,3.74641,5.98396,0.0146712
290.8,344.256,291.454,344.2,394.88,0.0559126,394.936,0.0559126,40.4366,312.883,0.197748,28.7651,0.000153125,4.44235,8.13964,0.0156191
290.5,419.924,291.1537,419.868,422.261,0.055907,422.317,0.055907,44.1574,329.049,0.164941,31.9246,0.000174751,5.34671,11.6013,0.0166619
290.2,443.887,290.854,443.831,428.248,0.0559009,428.304,0.0559009,48.4165,320.243,0.139676,35.6484,0.000201354,6.54894,17.2334,0.0178129
289.9,398.986,290.554,398.931,416.12,0.0558943,416.176,0.0558943,53.3231,288.429,0.119804,40.0829,0.000234607,8.18979,25.9558,0.0190874
289.6,402.736,290.254,402.681,393.217,0.0558885,393.272,0.0558885,59.0152,240.402,0.103892,45.4254,0.000276961,10.4986,37.7504,0.0205039
289.3,343.047,289.954,342.991,367.258,0.0558832,367.314,0.0558832,65.6702,185.429,0.0909538,51.946,0.000332135,13.8619,50.2372,0.0220842
289.0,357.255,289.6537,357.2,343.605,0.0558782,343.661,0.0558782,73.5181,132.36,0.0802912,60.0194,0.000406016,18.9498,58.6524,0.0238548
288.7,289.55,289.354,289.494,326.249,0.0558728,326.305,0.0558728,82.8622,87.4335,0.0714,70.1678,0.000508424,26.9219,58.7659,0.0258473
288.4,328.452,289.054,328.396,320.868,0.0558684,320.923,0.0558684,94.1084,53.4488,0.0639084,83.1166,0.000657458,39.5853,50.5158,0.0281006
288.1,331.406,288.754,331.35,334.454,0.0558638,334.51,0.0558638,107.811,30.237,0.0575373,99.8551,0.000933825,58.3964,38.066,0.0306623
287.8,363.608,288.454,363.552,367.12,0.0558588,367.176,0.0558588,124.741,15.8299,0.0520738,121.682,0.00363249,78.565,26.2138,0.0335914
287.5,443.271,288.1537,443.215,404.327,0.0558533,404.382,0.0558533,145.998,7.66937,0.0473533,150.194,0.0660453,82.9064,17.4084,0.0369617
287.2,432.049,287.854,431.994,442.675,0.0558474,442.731,0.0558474,173.194,3.43859,0.0432469,187.161,0.955259,66.1329,11.7099,0.0408669
286.9,489.372,287.554,489.316,506.058,0.0558407,506.114,0.0558407,208.768,1.42673,0.0396525,234.2,7.7477,45.624,8.2064,0.0454264
286.6,614.493,287.254,614.438,620.729,0.055833,620.784,0.055833,256.556,0.547827,0.0364884,292.239,34.4655,30.807,6.02639,0.0507954
286.3,838.952,286.954,838.896,793.853,0.0558234,793.909,0.0558234,322.867,0.194664,0.0336885,360.776,83.923,21.392,4.60977,0.0571779
286.0,978.249,286.6537,978.193,986.89,0.0558108,986.946,0.0558108,418.675,0.0640128,0.031199,437.152,111.823,15.4379,3.64287,0.0648467
285.7,1133.07,286.354,1133.01,1176.64,0.0557958,1176.7,0.0557958,564.353,0.01948,0.0289756,516.127,81.5289,11.5544,2.95371,0.0741734
285.4,1470.07,286.054,1470.01,1434.81,0.0557778,1434.86,0.0557778,800.676,0.00548594,0.0269818,590.118,32.5273,8.92378,2.44476,0.0856744
285.1,1879.33,285.754,1879.27,1883.56,0.0557549,1883.61,0.0557549,1216.91,0.00142973,0.0251869,650.283,7.10367,7.07643,2.05786,0.100085
284.8,2773,285.454,2772.94,2734.65,0.0557247,2734.7,0.0557247,2037.83,0.000344822,0.0235653,688.331,0.851113,5.73693,1.75666,0.118481
284.5,4585.55,285.1537,4585.5,4710.25,0.0556781,4710.31,0.0556781,4005.22,7.69623e-05,0.0220955,698.554,0.0573699,4.73832,1.51745,0.142491
284.2,11176.3,284.854,11176.2,11023.8,0.0555878,11023.9,0.0555878,10339,1.58965e-05,0.020759,679.36,0.00323224,3.9758,1.32424,0.174671
283.9,20736.7,284.554,20736.7,20589.8,0.0553722,20589.9,0.0553722,19951.3,3.03853e-06,0.0195403,633.719,0.000911371,3.38136,1.16589,0.219239
283.6,8822.73,284.254,8822.67,8884.15,0.0551149,8884.2,0.0551149,8311.56,5.37486e-07,0.0184258,568.336,0.000648756,2.90953,1.03445,0.283567
283.3,1867.4,283.954,1867.35,1762.77,0.0550344,1762.82,0.0550344,1267.02,8.79855e-08,0.017404,491.891,0.00050264,2.52911,0.924134,0.381573
283.0,733.104,283.6537,733.049,623.142,0.055015,623.197,0.055015,206.529,1.33289e-08,0.0164649,413.004,0.000401918,2.2181,0.830631,0.542413
282.7,357.957,283.354,357.902,377.359,0.0550065,377.414,0.0550065,35.1825,1.86861e-09,0.0155999,338.612,0.000329118,1.96072,0.750677,0.837348
282.4,257.646,283.054,257.591,282.528,0.055002,282.583,0.055002,5.43204,2.42428e-10,0.0148012,273.144,0.000274671,1.74539,0.68177,1.50912
282.1,225.768,282.754,225.713,228.039,0.0549986,228.094,0.0549986,0.710638,2.91063e-11,0.0140624,218.529,0.000232826,1.56348,0.621958,6.5991
281.8,310.147,282.454,310.092,291.224,0.0549951,291.279,0.0549951,0.076008,3.23393e-12,0.0133775,174.743,0.000199941,1.40845,0.569705,114.413
281.5,773.842,282.1537,773.787,774.531,0.0549888,774.586,0.0549888,0.00650567,3.32518e-13,0.0127415,140.575,0.000173611,1.27528,0.523785,632.138
281.2,780.701,281.854,780.646,749.204,0.0549766,749.259,0.0549766,0.000439437,3.16403e-14,0.0121498,114.311,0.000152191,1.16006,0.483213,633.237
280.9,188.847,281.554,188.792,210.718,0.0549686,210.773,0.0549686,2.3201e-05,2.78616e-15,0.0115984,94.2124,0.000134525,1.05971,0.447188,114.987
280.6,79.9459,281.254,79.891,86.7987,0.0549667,86.8537,0.0549667,9.50878e-07,2.27044e-16,0.0110837,78.7672,0.000119781,0.971803,0.415054,6.63347
280.3,49.395,280.954,49.34,69.5776,0.0549659,69.6326,0.0549659,3.00971e-08,1.71221e-17,0.0106025,66.7749,0.000107345,0.894358,0.386269,1.51138
280.0,27.8159,280.6537,27.761,59.3684,0.0549652,59.4233,0.0549652,7.32833e-10,1.19493e-18,0.010152,57.3338,9.67574e-05,0.825787,0.360382,0.83817
279.7,55.1986,280.354,55.1436,51.442,0.0549646,51.497,0.0549646,1.36875e-11,7.71733e-20,0.00972955,49.7876,8.76679e-05,0.764787,0.337018,0.542833
279.4,35.4879,280.054,35.4329,45.0823,0.0549641,45.1373,0.0549641,1.94628e-13,4.61246e-21,0.00933297,43.6649,7.98057e-05,0.710288,0.315857,0.381818
279.1,29.8014,279.754,29.7464,39.8784,0.0549636,39.9334,0.0549636,0.0,2.55117e-22,0.00896016,38.6277,7.29587e-05,0.661399,0.29663,0.283723
278.8,22.9401,279.454,22.8852,35.5553,0.0549634,35.6103,0.0549634,0.0,1.30583e-23,0.00860924,34.4308,6.69589e-05,0.617377,0.27911,0.219345
278.5,16.0,279.1537,15.945,31.9187,0.0549632,31.9736,0.0549632,0.0,6.18546e-25,0.00827855,30.8949,6.16718e-05,0.577599,0.263099,0.174746
278.2,31.0,278.854,30.945,28.8265,0.0549629,28.8815,0.0549629,0.0,2.71143e-26,0.00796655,27.886,5.69885e-05,0.541537,0.248428,0.142546
277.9,4.0,278.554,3.94504,26.1729,0.0549625,26.2278,0.0549625,0.0,1.09993e-27,0.00767186,25.3029,5.28203e-05,0.508744,0.234953,0.118523
277.6,31.0,278.254,30.945,23.8768,0.0549624,23.9318,0.0549624,0.0,4.12926e-29,0.00739323,23.0679,4.90941e-05,0.478836,0.222546,0.100117
277.3,27.0,277.954,26.945,21.8757,0.0549622,21.9306,0.0549622,0.0,1.43456e-30,0.0071295,21.1202,4.57494e-05,0.451486,0.211098,0.0857
277.0,24.0,277.6537,23.945,20.1202,0.0549619,20.1751,0.0549619,0.0,4.61219e-32,0.00687964,19.4121,4.27359e-05,0.42641,0.200511,0.074194

File: MX-UT-0.5-Cl2p.csv
#No of rows lightened (2D detector)1(if not using 2D detector, value is 1 and can be ignored!)
raw_x,raw_y,corrected x,data-bg,sum_components,bg,sum_fit,bg_shirley_,Ti-Cl,C_2
207.7,861.0,208.353,-0.989131,2.57624,861.989,864.565,861.989,1.41321,1.16303
207.6,855.0,208.253,-6.98913,2.63846,861.989,864.628,861.989,1.44426,1.1942
207.5,862.0,208.1528,0.0108687,2.70299,861.989,864.692,861.989,1.47634,1.22665
207.4,842.0,208.053,-19.9891,2.76994,861.989,864.759,861.989,1.5095,1.26044
207.3,885.0,207.953,23.0109,2.83945,861.989,864.829,861.989,1.5438,1.29564
207.2,898.0,207.853,36.0109,2.91163,861.989,864.901,861.989,1.57928,1.33235
207.1,860.0,207.753,-1.98913,2.98665,861.989,864.976,861.989,1.616,1.37064
207.0,851.0,207.6528,-10.9891,3.06464,861.989,865.054,861.989,1.65402,1.41062
206.9,837.0,207.553,-24.9891,3.14577,861.989,865.135,861.989,1.6934,1.45237
206.8,863.0,207.453,1.01087,3.23021,861.989,865.219,861.989,1.73421,1.496
206.7,885.0,207.353,23.0109,3.31815,861.989,865.307,861.989,1.77651,1.54164
206.6,812.0,207.253,-49.9891,3.40978,861.989,865.399,861.989,1.82038,1.58941
206.5,853.0,207.1528,-8.98913,3.50532,861.989,865.494,861.989,1.86589,1.63943
206.4,840.0,207.053,-21.9891,3.60501,861.989,865.594,861.989,1.91314,1.69186
206.3,817.0,206.953,-44.9891,3.70907,861.989,865.698,861.989,1.96221,1.74686
206.2,869.0,206.853,7.01087,3.81779,861.989,865.807,861.989,2.0132,1.80459
206.1,885.0,206.753,23.0109,3.93145,861.989,865.921,861.989,2.0662,1.86524
206.0,883.0,206.6528,21.0109,4.05035,861.989,866.039,861.989,2.12133,1.92902
205.9,856.0,206.553,-5.98913,4.17483,861.989,866.164,861.989,2.1787,1.99613
205.8,903.0,206.453,41.0109,4.30525,861.989,866.294,861.989,2.23844,2.06681
205.7,865.0,206.353,3.01087,4.44201,861.989,866.431,861.989,2.30067,2.14134
205.6,834.0,206.253,-27.9891,4.58552,861.989,866.575,861.989,2.36554,2.21998
205.5,868.0,206.1528,6.01087,4.73626,861.989,866.725,861.989,2.4332,2.30306
205.4,862.0,206.053,0.0108686,4.89472,861.989,866.884,861.989,2.50381,2.39091
205.3,898.0,205.953,36.0109,5.06145,861.989,867.051,861.989,2.57754,2.4839
205.2,870.0,205.853,8.01087,5.23705,861.989,867.226,861.989,2.6546,2.58246
205.1,888.0,205.753,26.0109,5.42219,861.989,867.411,861.989,2.73516,2.68702
205.0,909.0,205.6528,47.0109,5.61757,861.989,867.607,861.989,2.81947,2.79811
204.9,881.0,205.553,19.0109,5.824,861.989,867.813,861.989,2.90774,2.91626
204.8,860.0,205.453,-1.98913,6.04233,861.989,868.031,861.989,3.00023,3.04209
204.7,897.0,205.353,35.0109,6.27353,861.989,868.263,861.989,3.09723,3.1763
204.6,884.0,205.253,22.0109,6.51867,861.989,868.508,861.989,3.19902,3.31965
204.5,863.0,205.1528,1.01087,6.77891,861.989,868.768,861.989,3.30593,3.47298
204.4,876.0,205.053,14.0109,7.05557,861.989,869.045,861.989,3.4183,3.63726
204.3,880.0,204.953,18.0109,7.3501,861.989,869.339,861.989,3.53653,3.81357
204.2,886.0,204.853,24.0109,7.66412,861.989,869.653,861.989,3.66102,4.0031
204.1,868.0,204.753,6.01087,7.99946,861.989,869.989,861.989,3.79222,4.20724
204.0,896.0,204.6528,34.0109,8.35816,861.989,870.347,861.989,3.93064,4.42752
203.9,852.0,204.553,-9.98913,8.74254,861.989,870.732,861.989,4.0768,4.66573
203.8,881.0,204.453,19.0109,9.15518,861.989,871.144,861.989,4.23131,4.92387
203.7,880.0,204.353,18.0109,9.59907,861.989,871.588,861.989,4.39481,5.20426
203.6,862.0,204.253,0.0108692,10.0776,861.989,872.067,861.989,4.56802,5.50955
203.5,878.0,204.1528,16.0109,10.5945,861.989,872.584,861.989,4.75172,5.84282
203.4,882.0,204.053,20.0109,11.1544,861.989,873.144,861.989,4.94678,6.20764
203.3,856.0,203.953,-5.98913,11.7623,861.989,873.751,861.989,5.15417,6.60818
203.2,899.0,203.853,37.0109,12.4243,861.989,874.413,861.989,5.37495,7.04931
203.1,921.0,203.753,59.0109,13.1471,861.989,875.136,861.989,5.61031,7.53681
203.0,888.0,203.6528,26.0109,13.9391,861.989,875.928,861.989,5.86157,8.07751
202.9,877.0,203.553,15.0109,14.8098,861.989,876.799,861.989,6.1302,8.67961
202.8,890.0,203.453,28.0109,15.7708,861.989,877.76,861.989,6.41785,9.35294
202.7,914.0,203.353,52.0109,16.8358,861.989,878.825,861.989,6.72637,10.1095
202.6,875.0,203.253,13.0109,18.0217,861.989,880.011,861.989,7.05785,10.9638
202.5,849.0,203.1528,-12.9891,19.3488,861.989,881.338,861.989,7.41465,11.9341
202.4,882.0,203.053,20.0109,20.8424,861.989,882.832,861.989,7.79942,13.043
202.3,932.0,202.953,70.0109,22.5342,861.989,884.523,861.989,8.2152,14.319
202.2,872.0,202.853,10.0109,24.4646,861.989,886.454,861.989,8.66544,15.7992
202.1,935.0,202.753,73.0109,26.6855,861.989,888.675,861.989,9.1541,17.5314
202.0,901.0,202.6528,39.0109,29.2654,861.989,891.255,861.989,9.68572,19.5797
201.9,919.0,202.553,57.0109,32.2967,861.989,894.286,861.989,10.2655,22.0312
201.8,956.0,202.453,94.0109,35.9068,861.989,897.896,861.989,10.8997,25.0071
201.7,929.0,202.353,67.0109,40.2759,861.989,902.265,861.989,11.5952,28.6807
201.6,972.0,202.253,110.011,45.6655,861.989,907.655,861.989,12.3603,33.3051
201.5,916.0,202.1528,54.0109,52.4606,861.989,914.45,861.989,13.2049,39.2557
201.4,869.0,202.053,7.01087,61.2309,861.989,923.22,861.989,14.1405,47.0903
201.3,920.0,201.953,58.0109,72.8068,861.989,934.796,861.989,15.181,57.6258
201.2,949.0,201.853,87.0109,88.3564,861.989,950.346,861.989,16.3428,72.0136
201.1,975.0,201.753,113.011,109.416,861.989,971.406,861.989,17.646,91.7705
201.0,991.0,201.6528,129.011,137.795,861.989,999.784,861.989,19.1152,118.679
200.9,1004.0,201.553,142.011,175.222,861.989,1037.21,861.989,20.7806,154.441
200.8,1088.0,201.453,226.011,222.639,861.989,1084.63,861.989,22.6796,199.959
200.7,1117.0,201.353,255.011,279.128,861.989,1141.12,861.989,24.8597,254.268
200.6,1196.0,201.253,334.011,340.756,861.989,1202.75,861.989,27.3816,313.375
200.5,1267.0,201.1528,405.011,399.98,861.989,1261.97,861.989,30.3237,369.657
200.4,1336.0,201.053,474.011,446.437,861.989,1308.43,861.989,33.7902,412.647
200.3,1339.0,200.953,477.011,469.584,861.989,1331.57,861.989,37.9215,431.663
200.2,1335.0,200.853,473.011,462.606,861.989,1324.6,861.989,42.9115,419.695
200.1,1290.0,200.753,428.011,425.808,861.989,1287.8,861.989,49.0355,376.773
200.0,1210.0,200.6528,348.011,367.436,861.989,1229.42,861.989,56.6925,310.743
199.9,1153.0,200.553,291.011,301.106,861.989,1163.1,861.989,66.4725,234.634
199.8,1108.0,200.453,246.011,241.142,861.989,1103.13,861.989,79.2533,161.888
199.7,1041.0,200.353,179.011,198.364,861.989,1060.35,861.989,96.331,102.033
199.6,1056.0,200.253,194.011,178.388,861.989,1040.38,861.989,119.562,58.8257
199.5,1039.0,200.1528,177.011,182.584,861.989,1044.57,861.989,151.461,31.1238
199.4,1079.0,200.053,217.011,210.31,861.989,1072.3,861.989,195.121,15.1895
199.3,1076.0,199.953,214.011,260.654,861.989,1122.64,861.989,253.768,6.88588
199.2,1234.0,199.853,372.011,332.634,861.989,1194.62,861.989,329.71,2.92439
199.1,1296.0,199.753,434.011,423.77,861.989,1285.76,861.989,422.596,1.17427
199.0,1401.0,199.6528,539.011,527.734,861.989,1389.72,861.989,527.284,0.449691
198.9,1482.0,199.553,620.011,632.417,861.989,1494.41,861.989,632.252,0.16534
198.8,1581.0,199.453,719.011,720.071,861.989,1582.06,861.989,720.013,0.0585872
198.7,1634.0,199.353,772.011,770.755,861.989,1632.74,861.989,770.735,0.0200227
198.6,1661.0,199.253,799.011,768.758,861.989,1630.75,861.989,768.751,0.00658971
198.5,1518.0,199.1528,656.011,709.39,861.989,1571.38,861.989,709.388,0.00208272
198.4,1474.0,199.053,612.011,602.267,861.989,1464.26,861.989,602.266,0.000630193
198.3,1335.0,198.953,473.011,468.562,861.989,1330.55,861.989,468.562,0.000182037
198.2,1187.0,198.853,325.011,333.241,861.989,1195.23,861.989,333.241,5.00789e-05
198.1,1071.0,198.753,209.011,216.465,861.989,1078.45,861.989,216.465,1.30957e-05
198.0,1003.0,198.6528,141.011,128.531,861.989,990.52,861.989,128.531,3.25033e-06
197.9,970.0,198.553,108.011,69.9422,861.989,931.931,861.989,69.9422,7.6476e-07
197.8,906.0,198.453,44.0109,35.0375,861.989,897.027,861.989,35.0375,1.70412e-07
197.7,911.0,198.353,49.0109,16.2618,861.989,878.251,861.989,16.2618,3.59342e-08
197.6,902.0,198.253,40.0109,7.04945,861.989,869.039,861.989,7.04945,7.16568e-09
197.5,840.0,198.1528,-21.9891,2.8804,861.989,864.87,861.989,2.8804,1.35052e-09
197.4,862.0,198.053,0.0108962,1.11938,861.989,863.108,861.989,1.11938,2.40454e-10
197.3,821.0,197.953,-40.9891,0.416864,861.989,862.406,861.989,0.416864,4.04263e-11
197.2,805.0,197.853,-56.9891,0.149486,861.989,862.139,861.989,0.149486,6.41575e-12
197.1,858.0,197.753,-3.9891,0.051707,861.989,862.041,861.989,0.051707,9.60995e-13
197.0,872.0,197.6528,10.0109,0.0172368,861.989,862.006,861.989,0.0172368,1.35593e-13
196.9,839.0,197.553,-22.9891,0.0055238,861.989,861.995,861.989,0.0055238,1.81679e-14
196.8,864.0,197.453,2.0109,0.00169652,861.989,861.991,861.989,0.00169652,2.22076e-15
196.7,875.0,197.353,13.0109,0.000497881,861.989,861.99,861.989,0.000497881,3.47593e-16
196.6,866.0,197.253,4.0109,0.000139261,861.989,861.989,861.989,0.000139261,0.0
196.5,901.0,197.1528,39.0109,3.70489e-05,861.989,861.989,861.989,3.70489e-05,0.0
196.4,868.0,197.053,6.0109,9.35944e-06,861.989,861.989,861.989,9.35944e-06,0.0
196.3,846.0,196.953,-15.9891,2.24227e-06,861.989,861.989,861.989,2.24227e-06,0.0
196.2,861.0,196.853,-0.989104,5.08907e-07,861.989,861.989,861.989,5.08907e-07,0.0
196.1,868.0,196.753,6.0109,1.09327e-07,861.989,861.989,861.989,1.09327e-07,0.0
196.0,875.0,196.6528,13.0109,2.22154e-08,861.989,861.989,861.989,2.22154e-08,0.0
195.9,809.0,196.553,-52.9891,4.26735e-09,861.989,861.989,861.989,4.2673e-09,0.0
195.8,795.0,196.453,-66.9891,7.74435e-10,861.989,861.989,861.989,7.74472e-10,0.0
195.7,794.0,196.353,-67.9891,1.32786e-10,861.989,861.989,861.989,1.32746e-10,0.0
195.6,797.0,196.253,-64.9891,2.14868e-11,861.989,861.989,861.989,2.14799e-11,0.0
195.5,865.0,196.1528,3.0109,3.29692e-12,861.989,861.989,861.989,3.27986e-12,0.0
195.4,915.0,196.053,53.0109,4.54747e-13,861.989,861.989,861.989,4.72627e-13,0.0
195.3,877.0,195.953,15.0109,1.13687e-13,861.989,861.989,861.989,6.44238e-14,0.0
195.2,818.0,195.853,-43.9891,0.0,861.989,861.989,861.989,8.13421e-15,0.0
195.1,844.0,195.753,-17.9891,0.0,861.989,861.989,861.989,1.27228e-15,0.0
195.0,874.0,195.6528,12.0109,0.0,861.989,861.989,861.989,0.0,0.0

File: MX-UT-0.5-F1s.csv
#No of rows lightened (2D detector)1(if not using 2D detector, value is 1 and can be ignored!)
raw_x,raw_y,corrected x,data-bg,sum_components,bg,sum_fit,Ti-F,TiF2
690.3,8165.0,690.953,181.0,-7911.01,7984.0,72.9928,65.1683,7.82453
690.2,8095.0,690.8528,111.0,-7908.6,7984.0,75.404,67.3507,8.05327
690.1,8153.0,690.7528,169.0,-7906.06,7984.0,77.9365,69.6443,8.29217
690.0,8128.0,690.6528,144.0,-7903.4,7984.0,80.5986,72.0567,8.54183
689.9,8113.0,690.553,129.0,-7900.6,7984.0,83.3992,74.5963,8.80292
689.8,8170.0,690.453,186.0,-7897.65,7984.0,86.3482,77.2721,9.07613
689.7,8108.0,690.3528,124.0,-7894.54,7984.0,89.4563,80.094,9.36224
689.6,8076.0,690.2528,92.0,-7891.27,7984.0,92.7349,83.0729,9.66205
689.5,8080.0,690.1528,96.0,-7887.8,7984.0,96.1969,86.2204,9.97646
689.4,8231.0,690.053,247.0,-7884.14,7984.0,99.8561,89.5496,10.3064
689.3,8182.0,689.953,198.0,-7880.27,7984.0,103.728,93.0747,10.653
689.2,8162.0,689.8528,178.0,-7876.17,7984.0,107.829,96.8112,11.0173
689.1,8187.0,689.7528,203.0,-7871.82,7984.0,112.177,100.776,11.4005
689.0,8113.0,689.6528,129.0,-7867.21,7984.0,116.793,104.989,11.8041
688.9,8130.0,689.553,146.0,-7862.3,7984.0,121.7,109.471,12.2293
688.8,8064.0,689.453,80.0,-7857.08,7984.0,126.922,114.244,12.6779
688.7,8213.0,689.3528,229.0,-7851.51,7984.0,132.486,119.334,13.1516
688.6,8240.0,689.2528,256.0,-7845.58,7984.0,138.423,124.771,13.6522
688.5,8082.0,689.1528,98.0,-7839.23,7984.0,144.768,130.586,14.1819
688.4,7984.0,689.053,0.0,-7832.44,7984.0,151.558,136.815,14.7428
688.3,8037.0,688.953,53.0227,-7825.14,7983.98,158.835,143.497,15.3376
688.2,8171.0,688.8528,187.125,-7817.23,7983.87,166.647,150.678,15.9689
688.1,8171.0,688.7528,187.286,-7808.67,7983.71,175.048,158.409,16.6399
688.0,8162.0,688.6528,178.442,-7799.46,7983.56,184.099,166.745,17.3538
687.9,8165.0,688.553,181.596,-7789.54,7983.4,193.867,175.752,18.1145
687.8,8176.0,688.453,192.756,-7778.81,7983.24,204.429,185.503,18.926
687.7,8241.0,688.3528,257.949,-7767.18,7983.05,215.875,196.082,19.7931
687.6,8241.0,688.2528,258.17,-7754.52,7982.83,228.305,207.584,20.7208
687.5,8210.0,688.1528,227.378,-7740.79,7982.62,241.833,220.119,21.7148
687.4,8364.0,688.053,381.639,-7725.77,7982.36,256.594,233.812,22.7818
687.3,8348.0,687.953,365.959,-7709.3,7982.04,272.738,248.809,23.9288
687.2,8286.0,687.8528,304.245,-7691.31,7981.75,290.444,265.28,25.164
687.1,8370.0,687.7528,388.542,-7671.54,7981.46,309.918,283.422,26.4968
687.0,8435.0,687.6528,453.902,-7649.7,7981.1,331.401,303.463,27.9374
686.9,8438.0,687.553,457.292,-7625.53,7980.71,355.175,325.677,29.4979
686.8,8330.0,687.453,349.638,-7598.79,7980.36,381.573,350.382,31.1917
686.7,8266.0,687.3528,285.91,-7569.1,7980.09,410.992,377.958,33.0343
686.6,8392.0,687.2528,412.208,-7535.89,7979.79,443.903,408.859,35.0435
686.5,8552.0,687.1528,572.63,-7498.5,7979.37,480.87,443.63,37.2398
686.4,8465.0,687.053,486.083,-7456.34,7978.92,522.576,482.929,39.6469
686.3,8550.0,686.953,571.536,-7408.62,7978.46,569.846,527.554,42.2923
686.2,8457.0,686.8528,478.985,-7354.32,7978.01,623.691,578.483,45.2081
686.1,8741.0,686.7528,763.517,-7292.13,7977.48,685.35,636.918,48.4319
686.0,8717.0,686.6528,740.16,-7220.48,7976.84,756.357,704.349,52.008
685.9,8742.0,686.553,765.805,-7137.58,7976.2,838.619,782.631,55.9886
685.8,8863.0,686.453,887.512,-7040.97,7975.49,934.519,874.083,60.436
685.7,9001.0,686.3528,1026.33,-6927.63,7974.67,1047.04,981.613,65.4247
685.6,9268.0,686.2528,1294.32,-6793.77,7973.68,1179.9,1108.86,71.0441
685.5,9172.0,686.1528,1199.39,-6634.89,7972.61,1337.72,1260.32,77.4023
685.4,9202.0,686.053,1230.43,-6445.49,7971.57,1526.08,1441.45,84.631
685.3,9533.0,685.953,1562.63,-6218.89,7970.37,1751.48,1658.59,92.8915
685.2,9846.0,685.8528,1877.1,-5947.98,7968.9,2020.92,1918.54,102.383
685.1,10369.0,685.7528,2401.93,-5626.29,7967.07,2340.78,2227.43,113.351
685.0,10822.0,685.6528,2857.18,-5250.31,7964.82,2714.51,2588.41,126.103
684.9,11136.0,685.553,3173.76,-4823.86,7962.24,3138.38,2997.36,141.024
684.8,11781.0,685.453,3821.76,-4364.37,7959.24,3594.88,3436.28,158.597
684.7,12137.0,685.3528,4181.18,-3911.43,7955.82,4044.39,3864.97,179.423
684.6,12390.0,685.2528,4437.87,-3532.86,7952.13,4419.27,4215.02,204.244
684.5,12662.0,685.1528,4713.79,-3319.29,7948.21,4628.93,4394.97,233.954
684.4,12299.0,685.053,4354.67,-3358.36,7944.33,4585.98,4316.41,269.572
684.3,12053.0,684.953,4112.29,-3689.87,7940.71,4250.84,3938.68,312.163
684.2,11585.0,684.8528,3647.61,-4268.92,7937.39,3668.47,3305.86,362.617
684.1,10980.0,684.7528,3045.47,-4972.81,7934.53,2961.72,2540.5,421.222
684.0,10241.0,684.6528,2308.77,-5655.68,7932.23,2276.55,1789.64,486.91
683.9,9762.0,684.553,1831.54,-6211.93,7930.46,1718.53,1162.41,556.121
683.8,9384.0,684.453,1454.94,-6605.58,7929.06,1323.48,701.97,621.509
683.7,8978.0,684.3528,1050.02,-6859.2,7927.98,1068.78,397.512,671.271
683.6,8712.0,684.2528,784.802,-7023.95,7927.2,903.244,212.591,690.653
683.5,8678.0,684.1528,751.459,-7151.7,7926.54,774.838,107.914,666.924
683.4,8503.0,684.053,577.028,-7277.2,7925.97,648.771,52.1503,596.621
683.3,8379.0,683.953,453.469,-7411.39,7925.53,514.141,24.0272,490.114
683.2,8282.0,683.8528,356.815,-7546.08,7925.18,379.109,10.5582,368.551
683.1,8225.0,683.7528,300.097,-7666.16,7924.9,258.743,4.42392,254.319
683.0,8262.0,683.6528,337.369,-7760.74,7924.63,163.886,1.76646,162.12
682.9,8093.0,683.553,168.586,-7827.45,7924.41,96.9648,0.671665,96.2931
682.8,8086.0,683.453,161.727,-7870.29,7924.27,53.9788,0.242998,53.7358
682.7,7990.0,683.3528,65.8247,-7895.73,7924.18,28.4443,0.0835807,28.3608
682.6,8070.0,683.2528,145.915,-7909.84,7924.08,14.2476,0.0273106,14.2203
682.5,7976.0,683.1528,52.0,-7917.2,7924.0,6.7997,0.00847174,6.79123
682.4,7924.0,683.053,0.0,-7920.9,7924.0,3.09517,0.00249314,3.09267
682.3,8151.0,682.953,227.0,-7922.66,7924.0,1.34393,0.000695656,1.34324
682.2,8189.0,682.8528,265.0,-7923.44,7924.0,0.556411,0.000183944,0.556227
682.1,8006.0,682.7528,82.0,-7923.78,7924.0,0.219505,4.60688e-05,0.219459
682.0,8087.0,682.6528,163.0,-7923.92,7924.0,0.0824478,1.09237e-05,0.0824369
681.9,8070.0,682.553,146.0,-7923.97,7924.0,0.0294605,2.45134e-06,0.0294581
681.8,8052.0,682.453,128.0,-7923.99,7924.0,0.0100065,5.20415e-07,0.0100059
681.7,7992.0,682.3528,68.0,-7924,7924.0,0.00322827,1.04489e-07,0.00322816
681.6,7992.0,682.2528,68.0,-7924,7924.0,0.000988564,1.98352e-08,0.000988544
681.5,7937.0,682.1528,13.0,-7924,7924.0,0.00028715,3.55903e-09,0.000287146
681.4,7976.0,682.053,52.0,-7924,7924.0,7.90733e-05,6.03472e-10,7.90727e-05